Folder: HTCeramics/PeakFitting/xrdData/ivy_raman

Note: PeakFitting/xrdData/ivy_raman/about.txt
I'm sending you a couple data files that are pretty good examples of Raman signals from some samples of mine. The peaks in this data overlap quite a bit and may pose you quite a challenge. The image below gives you a preview of what they look like, even though it doesn't include the actual data that's attached. Each characteristic peak is labelled in the diagram, but as you can see, there's at least one extra that isn't labelled at ~750cm-1 and there's others that are so overlapping that even the literature doesn't try to deconvolute them -- E(TO5) & E(TO6). The peak at 0cm-1 can be ignored.

Note: README.md
This github repo is for short-term storage of python projects for any undergrads working for Geoff Brennecka.
This repository is open to the current students at CSM plus the executive high school students from JeffCo.
If you have questions about using git or GitHub, I highly recommend at least reading chapter 2 of the Pro Git book by Scott Chacon and Ben Straub (https://git-scm.com/book/en/v2).
If you have questions about anything else, feel free to ask in the group chat or email one of the CSM students directly.
New to Python? Learn it the Hard Way. Poke around on Slack for a current link to Python 3 the Hard Way (by Zed Shaw). Get through at least excercise 20 to develop some familiarity with the basic operations of Python. Or don't, I'm not a README, not a cop.

Most of the code here is python with modules from anaconda [http://anaconda.org/]. If you have base conda installed, most of the modules will exist on your machine,
like numPy, matplotlib, and others. 
A few modules (generally in testing) may need to be installed separately.
I suggest doing any additional installations in a separate *environment*, which can be set up with
  $ conda create --name <Name>
and activated with
  $ conda activate <Name>
It's not necessary, but it's nice to keep a clean workspace, and can help avoid conflicts if you start tinkering with extra modules (totally not speaking from experience). 

If you already have an IDE that you're familiar with, cool. It doesn't matter what you use, though we have seen some 
funky header artifacts from PyCharm. If you're new to all of this, I recommend Atom. It's free, has a ton of available plugins, 
is built with GitHub integration, and looks nice, while being fairly lightweight.

File: CLT_20x-0.4_single accumulation_for Sam.csv
-52.9686,200.8
-48.1205,200.8
-43.2751,201.2
-38.4323,200.8
-33.5921,201
-28.7546,201
-23.9197,200.9
-19.0875,201.6
-14.2579,200.9
-9.43094,202.8
-4.60661,210.8
0.215091,235
5.03416,250.8
9.85061,252.1
14.6644,247.9
19.4756,230
24.2842,210.7
29.0902,202.4
33.8935,200.9
38.6943,200.7
43.4924,201.5
48.2879,200.9
53.0808,201.3
57.8711,200.7
62.6588,201.2
67.4439,200.6
72.2264,201.2
77.0063,201
81.7836,200.8
86.5583,201.6
91.3305,201.6
96.1,201.3
100.867,201.3
105.631,201.5
110.393,201.6
115.152,202
119.909,200.9
124.663,202.6
129.414,202.5
134.163,204.6
138.91,210.3
143.653,224.8
148.395,244.8
153.133,266.8
157.869,290.4
162.603,309.1
167.334,321.3
172.062,328.1
176.788,328.9
181.511,331.5
186.232,329.5
190.95,329.1
195.666,334.3
200.379,353.4
205.089,387.9
209.797,441
214.503,480.9
219.205,496.2
223.906,493.9
228.604,475.9
233.299,456.2
237.992,451.5
242.682,463.4
247.37,480.7
252.055,492.2
256.737,508
261.418,506.3
266.095,501.2
270.77,478.3
275.443,446.1
280.113,428.7
284.781,414
289.446,406.1
294.108,403.4
298.768,404.7
303.426,412.7
308.081,428.4
312.733,460.6
317.383,484.3
322.031,492.3
326.676,488.1
331.318,466.4
335.958,445.5
340.596,446
345.231,478.4
349.864,551.4
354.494,662.4
359.121,749.5
363.747,797.2
368.369,797.8
372.99,758.5
377.607,713.5
382.222,686.6
386.835,671.1
391.446,655.2
396.053,637.4
400.659,602.2
405.262,562.7
409.862,535.8
414.46,514.5
419.056,490
423.649,478.6
428.24,468.4
432.828,445.6
437.413,438.6
441.997,431
446.578,428.3
451.156,444.3
455.732,476.9
460.305,520.5
464.877,580.6
469.445,608.9
474.011,597.2
478.575,548.8
483.137,481.3
487.695,419.4
492.252,379.6
496.806,356.8
501.358,346.7
505.907,340.8
510.454,331.2
514.998,329.1
519.54,323.6
524.08,319.4
528.617,315.7
533.151,311.5
537.684,310.7
542.214,311.4
546.741,312.9
551.266,316.2
555.789,321.8
560.309,328.6
564.827,343.4
569.343,354.8
573.856,377
578.366,409.4
582.875,451.7
587.381,527.8
591.884,631.6
596.385,725.9
600.884,802.5
605.38,813.7
609.874,765.3
614.366,682
618.855,587.5
623.342,515.1
627.827,470.3
632.309,446.3
636.789,433.7
641.266,430.7
645.741,435
650.214,448
654.684,472.5
659.152,494.3
663.617,520.1
668.081,527.9
672.541,514.5
677,481.4
681.456,445.4
685.91,409.1
690.361,383.1
694.811,360.3
699.257,343.9
703.702,331.4
708.144,323.7
712.583,316.8
717.021,309.4
721.456,305.3
725.889,302.8
730.319,301.4
734.747,300.8
739.173,303.6
743.596,305.5
748.017,309.2
752.436,315.5
756.852,318.2
761.267,315.8
765.678,312.7
770.088,305
774.495,295.8
778.9,290.2
783.302,284.4
787.703,283.7
792.1,281
796.496,280.9
800.889,281.1
805.28,282.4
809.669,284.7
814.055,286.2
818.439,289.5
822.821,294.9
827.201,299.2
831.578,304.8
835.953,315.3
840.325,332.9
844.696,346.7
849.064,365.9
853.43,400
857.793,437.2
862.154,496.5
866.513,550.1
870.87,592.8
875.224,591.3
879.576,563.2
883.926,515.7
888.273,460.1
892.619,420.2
896.962,387.1
901.302,359.1
905.641,341.7
909.977,331.7
914.311,322.6
918.643,314
922.972,307
927.299,302
931.624,297.2
935.947,290.6
940.267,285.2
944.585,281
948.901,276.4
953.215,272.3
957.526,270.1
961.835,266.1
966.142,262.1
970.447,261.5
974.749,257.9
979.049,257.5
983.347,255.8
987.643,254.6
991.937,253.5
996.228,252.2
1000.52,250.3
1004.8,251
1009.09,249.2
1013.37,250.5
1017.65,247.9
1021.93,247
1026.2,245.9
1030.48,246.8
1034.75,245.6
1039.02,244.6
1043.28,243.7
1047.55,243.4
1051.81,243.3
1056.07,241.7
1060.33,241.2
1064.59,242
1068.84,241
1073.09,241
1077.34,239.4
1081.59,238.5
1085.83,238.9
1090.07,237.9
1094.31,237.2
1098.55,237.7
1102.79,237

File: SLT_20x-0.4_single accumulation_for Sam.csv
-52.9686,200.6
-48.1205,201.1
-43.2751,200.8
-38.4323,201
-33.5921,201
-28.7546,200.9
-23.9197,200.7
-19.0875,200.2
-14.2579,201.3
-9.43094,202.7
-4.60661,214.3
0.215091,239.8
5.03416,263.9
9.85061,264.9
14.6644,258.2
19.4756,242.5
24.2842,214.1
29.0902,202.1
33.8935,201.3
38.6943,200.5
43.4924,201.2
48.2879,200.5
53.0808,201.4
57.8711,201.6
62.6588,200.6
67.4439,200.3
72.2264,201.3
77.0063,201.3
81.7836,200.6
86.5583,200.7
91.3305,200.7
96.1,200.9
100.867,200.8
105.631,201.1
110.393,200.8
115.152,201.3
119.909,201.2
124.663,201.2
129.414,200.9
134.163,201.9
138.91,205.5
143.653,210.5
148.395,214.6
153.133,217.9
157.869,220.3
162.603,222
167.334,220.6
172.062,220.9
176.788,220.6
181.511,222.1
186.232,221.6
190.95,223.8
195.666,225.2
200.379,231.7
205.089,248.6
209.797,271.2
214.503,286
219.205,292.5
223.906,288
228.604,272.4
233.299,257.4
237.992,252.5
242.682,259
247.37,276.9
252.055,301.2
256.737,337.3
261.418,365.9
266.095,379
270.77,368.9
275.443,343.9
280.113,313.8
284.781,286.4
289.446,270.6
294.108,262.6
298.768,262.7
303.426,272.2
308.081,296.4
312.733,338.9
317.383,378.4
322.031,397.5
326.676,393.5
331.318,369.3
335.958,331.9
340.596,309
345.231,324.7
349.864,409.8
354.494,566.2
359.121,683.9
363.747,738.8
368.369,753.5
372.99,689.8
377.607,611.1
382.222,575.2
386.835,571.5
391.446,573.5
396.053,576.2
400.659,574.3
405.262,590.2
409.862,611.9
414.46,626.4
419.056,572.5
423.649,527
428.24,449.6
432.828,377
437.413,343.8
441.997,331.5
446.578,326.9
451.156,335.2
455.732,374.1
460.305,449.2
464.877,530.9
469.445,577.3
474.011,553.8
478.575,503
483.137,416.1
487.695,343.7
492.252,308.1
496.806,296
501.358,288.1
505.907,282.7
510.454,279.3
514.998,275.8
519.54,269.3
524.08,265.2
528.617,259.7
533.151,255.5
537.684,251.2
542.214,246.5
546.741,244.4
551.266,244.5
555.789,243.4
560.309,244.3
564.827,246.5
569.343,247.8
573.856,250.8
578.366,255.1
582.875,262.4
587.381,278.1
591.884,295.4
596.385,305.2
600.884,303.9
605.38,295.5
609.874,277.7
614.366,261.5
618.855,249.3
623.342,244.7
627.827,244.3
632.309,247.8
636.789,250.2
641.266,258.6
645.741,270
650.214,294.2
654.684,330.4
659.152,371.6
663.617,413.5
668.081,433.1
672.541,423.8
677,392.7
681.456,350.3
685.91,308.2
690.361,280.6
694.811,264.3
699.257,253.8
703.702,247.7
708.144,244.1
712.583,242
717.021,238.4
721.456,238.7
725.889,237.4
730.319,238.5
734.747,239.7
739.173,241.2
743.596,240.7
748.017,239.6
752.436,241.2
756.852,241.7
761.267,239.9
765.678,236.7
770.088,235.1
774.495,232.3
778.9,230.6
783.302,228.1
787.703,227.8
792.1,227.2
796.496,227.2
800.889,229.1
805.28,230.7
809.669,233.7
814.055,236.6
818.439,242.3
822.821,243.9
827.201,247.9
831.578,255.1
835.953,266.2
840.325,282.5
844.696,309.6
849.064,352.3
853.43,431.8
857.793,547.2
862.154,704.8
866.513,846.4
870.87,941
875.224,900.9
879.576,787.6
883.926,658.1
888.273,520.3
892.619,421.1
896.962,361.5
901.302,323.3
905.641,297
909.977,279.2
914.311,267.4
918.643,262.2
922.972,256.6
927.299,251.3
931.624,248.7
935.947,247.3
940.267,246.3
944.585,244.9
948.901,243
953.215,240.4
957.526,239.8
961.835,236.2
966.142,234.6
970.447,230.6
974.749,229.4
979.049,228.6
983.347,226.9
987.643,224.4
991.937,224.5
996.228,224.1
1000.52,222.6
1004.8,222.3
1009.09,221.3
1013.37,220.8
1017.65,219.4
1021.93,218.8
1026.2,218.7
1030.48,218.7
1034.75,216.5
1039.02,217.6
1043.28,216.1
1047.55,215.8
1051.81,215.3
1056.07,215
1060.33,215.3
1064.59,213.5
1068.84,213.6
1073.09,212.8
1077.34,212.4
1081.59,211.8
1085.83,211.9
1090.07,211.5
1094.31,210.4
1098.55,210.9
1102.79,210