Folder: HTCeramics/PeakFitting/xrdData/jacobson_raman (part 3)

File: C3_02156_532nm_5sec_5per_50x.txt
#Wave		#Intensity
1818.91	1358.71
1812.64	1385.06
1806.37	1438.21
1800.1	1346.29
1793.82	1412.11
1787.53	1412.61
1781.24	1389.25
1774.95	1375.46
1768.65	1444.21
1762.35	1430.39
1756.04	1365.88
1749.72	1467.71
1743.4	1422.24
1737.08	1387.91
1730.75	1380.48
1724.42	1448.81
1718.08	1496.53
1711.73	1454.35
1705.38	1440.58
1699.03	1470.87
1692.67	1471.24
1686.3	1411.93
1679.93	1562.99
1673.56	1486.44
1667.18	1463.28
1660.79	1519.99
1654.4	1528.12
1648	1525.28
1641.6	1594.28
1635.19	1536.78
1628.78	1558.88
1622.36	1503.06
1615.94	1540.7
1609.51	1624.92
1603.07	1548.98
1596.63	1645.46
1590.19	1589.78
1583.74	1566.74
1577.28	1562.31
1570.82	1577.99
1564.35	1602.92
1557.88	1583.02
1551.4	1521.48
1544.92	1588.01
1538.43	1648.26
1531.93	1611.44
1525.43	1525.47
1518.92	1565.64
1512.41	1637.97
1505.89	1581.33
1499.37	1581.49
1492.84	1589.3
1486.31	1528.26
1479.77	1534.56
1473.22	1542.39
1466.67	1595.97
1460.11	1562.56
1453.55	1532.25
1446.98	1594.82
1440.4	1661.84
1433.82	1564.67
1427.24	1607.31
1420.64	1628.64
1414.05	1601.44
1407.44	1619.71
1400.83	1616.76
1394.22	1647.06
1387.6	1589.75
1380.97	1479.73
1374.33	1609.53
1367.7	1593.05
1361.05	1629.24
1354.4	1570.67
1347.74	1659.38
1341.08	1618.89
1334.41	1699.89
1327.74	1623.49
1321.05	1642.99
1314.37	1647.5
1307.68	1610.18
1300.98	1598.29
1294.27	1711.67
1287.56	1668.43
1280.85	1704.14
1274.12	1614.88
1267.39	1644.63
1260.66	1687.68
1253.92	1696.55
1247.17	1669.84
1240.42	1730.51
1233.66	1717.12
1226.89	1795.37
1220.12	1774.56
1213.35	1808.36
1206.56	1849.47
1199.77	1869.89
1192.98	1891.74
1186.18	1831.25
1179.37	1910.36
1172.55	1986.39
1165.73	1942.09
1158.91	1959.37
1152.07	2030.76
1145.24	2088.86
1138.39	2138.08
1131.54	2169.71
1124.68	2192.53
1117.82	2269.2
1110.95	2284.61
1104.07	2206.94
1097.19	2223.83
1090.3	2287.12
1083.41	2232.85
1076.51	2388.73
1069.6	2214.34
1062.69	2264.39
1055.77	2263.78
1048.84	2306.47
1041.91	2214.98
1034.97	2179.83
1028.03	2235.43
1021.07	2214.71
1014.12	2238.56
1007.15	2189.16
1000.18	2215.86
993.205	2109.25
986.223	2097.31
979.234	2088.25
972.238	2122.08
965.236	2084.46
958.229	2058.32
951.215	2086.38
944.193	2122.93
937.166	1955.98
930.133	2076.43
923.092	2047.56
916.045	2061.31
908.992	1988.56
901.934	1951.35
894.867	2007.58
887.795	2043.92
880.717	2071.71
873.631	2021.85
866.539	1984.77
859.441	1992.82
852.338	1961.45
845.227	2039.8
838.109	1907.32
830.984	1857.86
823.854	1951.5
816.717	2002.94
809.574	1961.93
802.424	1971.32
795.268	1915.04
788.104	1946.78
780.934	1918.51
773.758	1911.18
766.574	1921.96
759.385	1903.51
752.189	1918.43
744.986	1977.74
737.777	2036.94
730.561	2008.75
723.338	2005.51
716.109	1993.99
708.873	2123.4
701.631	2113.16
694.381	2104.32
687.125	2132.69
679.863	2189.91
672.594	2185.14
665.318	2330.13
658.035	2377.39
650.744	2460.21
643.449	2482.59
636.146	2652.76
628.836	2839.02
621.52	3042.7
614.195	3367.47
606.865	3496.62
599.529	3784.93
592.186	4132.59
584.834	4610.15
577.477	5044.69
570.111	5344.03
562.74	5733.65
555.361	5939.64
547.977	5901.58
540.584	5929.84
533.186	5985.06
525.779	5839.05
518.365	5415.52
510.945	5062.82
503.52	4752.51
496.084	4464.29
488.645	4266.61
481.195	4182.03
473.74	3927.32
466.277	3782.92
458.809	3451.44
451.332	3453.49
443.848	3233.8
436.355	3281.41
428.857	3190.27
421.354	3024.71
413.84	2979.22
406.32	2851.39
398.793	2905.74
391.258	2932.11
383.717	2929.27
376.168	2881.4
368.611	2778.05
361.047	2533.49
353.477	2593.07
345.896	2587.89
338.311	2610.38
330.717	2613.08
323.117	2490.83
315.508	2427.93
307.891	2450.46
300.268	2339.2
292.637	2346.04
284.998	2394.74
277.352	2371.42
269.697	2365.13
262.035	2301.43
254.365	2351.25
246.688	2213.46
239.002	2189.11
231.311	2188.18
223.609	2223.6
215.9	2291.36
208.184	2228.13
200.459	2281.48
192.727	2280.43
184.986	2229
177.238	2273.13
169.482	2287.53
161.717	2366.25
153.945	2417.79
146.164	2444.81
138.375	2474.32
130.578	2585.81
122.771	2620.21
114.959	2607.2
107.137	2663.21
99.3066	2796.95
91.4668	2913.82
83.6211	2966.74
75.7637	3177.31
67.9004	3168.78
60.0273	2517.79
52.1465	558.054
44.2559	97.5525
40.3086	65.8435

File: C3_02157_532nm_5sec_5per_50x.txt
#Wave		#Intensity
1818.91	552.426
1812.64	560.088
1806.37	583.576
1800.1	528.956
1793.82	546.059
1787.53	594.95
1781.24	540.442
1774.95	565.432
1768.65	561.814
1762.35	612.117
1756.04	592.619
1749.72	549.4
1743.4	594.842
1737.08	580.14
1730.75	555.983
1724.42	624.979
1718.08	591.359
1711.73	603.486
1705.38	617.166
1699.03	597.787
1692.67	586.297
1686.3	570.111
1679.93	608.875
1673.56	592.695
1667.18	562.439
1660.79	629.286
1654.4	572.457
1648	603.237
1641.6	579.313
1635.19	650.597
1628.78	567.432
1622.36	587.205
1615.94	602.274
1609.51	606.431
1603.07	568.632
1596.63	560.389
1590.19	606.444
1583.74	647.771
1577.28	572.898
1570.82	600.256
1564.35	570.374
1557.88	586.875
1551.4	618.776
1544.92	590.493
1538.43	582.283
1531.93	591.016
1525.43	578.203
1518.92	576.167
1512.41	594.089
1505.89	559.831
1499.37	594.591
1492.84	632.352
1486.31	587.438
1479.77	579.283
1473.22	555.87
1466.67	576.745
1460.11	548.8
1453.55	526.996
1446.98	582.839
1440.4	547.357
1433.82	598.524
1427.24	581.302
1420.64	576.24
1414.05	583.307
1407.44	607.012
1400.83	571.69
1394.22	589.317
1387.6	566.149
1380.97	555.088
1374.33	575.694
1367.7	572.171
1361.05	564.141
1354.4	557.627
1347.74	542.113
1341.08	601.645
1334.41	575.625
1327.74	587.093
1321.05	565.62
1314.37	593.519
1307.68	601.951
1300.98	552.165
1294.27	553.162
1287.56	567.563
1280.85	593.844
1274.12	600.747
1267.39	545.238
1260.66	610.06
1253.92	567.988
1247.17	604.519
1240.42	606.936
1233.66	581.248
1226.89	613.233
1220.12	581.678
1213.35	595.905
1206.56	645.473
1199.77	671.394
1192.98	616.361
1186.18	617.275
1179.37	660.769
1172.55	704.185
1165.73	738.727
1158.91	685.341
1152.07	740.32
1145.24	744.036
1138.39	741.903
1131.54	728.101
1124.68	762.43
1117.82	808.348
1110.95	813.438
1104.07	786.532
1097.19	829.397
1090.3	824.292
1083.41	820.646
1076.51	837.286
1069.6	769.953
1062.69	760.58
1055.77	790.229
1048.84	805.39
1041.91	718.137
1034.97	752.064
1028.03	758.579
1021.07	703.243
1014.12	719.847
1007.15	693.354
1000.18	724.278
993.205	709.291
986.223	725.827
979.234	682.259
972.238	643.056
965.236	686.731
958.229	676.122
951.215	664.107
944.193	590.888
937.166	627.337
930.133	636.715
923.092	623.357
916.045	590.161
908.992	610.884
901.934	618.825
894.867	578.647
887.795	593.669
880.717	563.472
873.631	572.835
866.539	583.59
859.441	568.975
852.338	551.571
845.227	542.633
838.109	560.397
830.984	536.031
823.854	590.217
816.717	557.462
809.574	569.548
802.424	570.425
795.268	567.11
788.104	548.449
780.934	547.947
773.758	579.484
766.574	524.676
759.385	563.128
752.189	547.33
744.986	553.768
737.777	553.259
730.561	531.971
723.338	543.939
716.109	598.75
708.873	567.806
701.631	575.565
694.381	623.299
687.125	567.616
679.863	615.267
672.594	587.196
665.318	594.897
658.035	609.446
650.744	606.139
643.449	698.743
636.146	674.826
628.836	786.339
621.52	785.608
614.195	896.809
606.865	1028.26
599.529	1145.83
592.186	1240.05
584.834	1393.92
577.477	1603.21
570.111	1675.01
562.74	1754.81
555.361	1781.62
547.977	1698.73
540.584	1691.73
533.186	1623.94
525.779	1490.13
518.365	1353.88
510.945	1336.43
503.52	1166.93
496.084	1054.22
488.645	1023.66
481.195	971.691
473.74	938.587
466.277	846.603
458.809	812.339
451.332	807.552
443.848	765.372
436.355	743.287
428.857	803.899
421.354	723.213
413.84	739.815
406.32	709.856
398.793	694.561
391.258	735.018
383.717	726.352
376.168	681.948
368.611	661.441
361.047	635.685
353.477	636.384
345.896	660.821
338.311	682.574
330.717	631.878
323.117	666.763
315.508	610.924
307.891	657.569
300.268	614.958
292.637	597.317
284.998	588.869
277.352	583.051
269.697	587.691
262.035	567.53
254.365	577.385
246.688	565.084
239.002	571.015
231.311	518.459
223.609	558.172
215.9	519.996
208.184	522.055
200.459	493.049
192.727	535.203
184.986	530.776
177.238	565.058
169.482	556.739
161.717	558.734
153.945	586.444
146.164	569.128
138.375	567.246
130.578	589.724
122.771	582.697
114.959	607.664
107.137	667.08
99.3066	677.856
91.4668	712.835
83.6211	694.234
75.7637	706.21
67.9004	742.306
60.0273	609.451
52.1465	183.904
44.2559	53.2105
40.3086	45.5839

File: C3_02158_532nm_5sec_5per_50x.txt
#Wave		#Intensity
1818.91	1698.79
1812.64	1702.6
1806.37	1774.64
1800.1	1647.41
1793.82	1671.61
1787.53	1775.3
1781.24	1697.62
1774.95	1675.65
1768.65	1753.69
1762.35	1822.08
1756.04	1717.64
1749.72	1695.7
1743.4	1779.78
1737.08	1798.91
1730.75	1696.38
1724.42	1789.71
1718.08	1818.23
1711.73	1791.55
1705.38	1788.52
1699.03	1898.76
1692.67	1740.03
1686.3	1779.44
1679.93	1890.97
1673.56	1894.12
1667.18	1840.85
1660.79	1820.55
1654.4	1962.93
1648	1920.67
1641.6	1847.24
1635.19	1943.99
1628.78	2021.87
1622.36	1808.34
1615.94	1883.08
1609.51	1968.57
1603.07	1914.08
1596.63	1955.93
1590.19	1899.99
1583.74	1952.61
1577.28	1926.18
1570.82	1919.89
1564.35	2029.54
1557.88	1910.43
1551.4	1944.28
1544.92	1919.49
1538.43	1939.4
1531.93	1962.36
1525.43	1945.29
1518.92	1958.97
1512.41	1997.18
1505.89	1958.64
1499.37	1943.15
1492.84	1947.58
1486.31	2034.61
1479.77	1863.18
1473.22	1884.46
1466.67	1959.1
1460.11	1987.88
1453.55	1809.45
1446.98	1925.04
1440.4	1956.8
1433.82	1914.06
1427.24	1892.65
1420.64	1903.11
1414.05	1981.73
1407.44	1869.48
1400.83	1911.68
1394.22	1885.81
1387.6	1965.67
1380.97	1867.39
1374.33	1954.65
1367.7	1903.22
1361.05	1942.15
1354.4	1923.89
1347.74	1893.64
1341.08	2043.49
1334.41	1968.22
1327.74	1929.02
1321.05	1918.32
1314.37	2070.59
1307.68	2026.92
1300.98	2007.19
1294.27	1938.3
1287.56	2018.5
1280.85	2000.32
1274.12	1997.04
1267.39	1950.68
1260.66	2103.3
1253.92	2018.36
1247.17	1973.58
1240.42	2039.9
1233.66	2046.94
1226.89	2058.4
1220.12	2133.31
1213.35	2104.84
1206.56	2306.31
1199.77	2264.48
1192.98	2231.55
1186.18	2303.02
1179.37	2389.05
1172.55	2499.86
1165.73	2491.74
1158.91	2414.8
1152.07	2569.17
1145.24	2670.64
1138.39	2690.13
1131.54	2639.55
1124.68	2714.43
1117.82	2837.23
1110.95	2823.02
1104.07	2890.25
1097.19	2884.73
1090.3	2850.19
1083.41	2859.21
1076.51	2810.27
1069.6	2731.02
1062.69	2737.22
1055.77	2805.53
1048.84	2775.56
1041.91	2682.2
1034.97	2671.12
1028.03	2638.47
1021.07	2674.91
1014.12	2616.45
1007.15	2509.28
1000.18	2507.01
993.205	2484.67
986.223	2564.02
979.234	2488.74
972.238	2409.32
965.236	2385.71
958.229	2392.1
951.215	2294.45
944.193	2279.55
937.166	2317.31
930.133	2219.98
923.092	2284.69
916.045	2325.18
908.992	2186.99
901.934	2227.49
894.867	2197.16
887.795	2195.16
880.717	2205.87
873.631	2157.3
866.539	2108.82
859.441	2130.84
852.338	2107.79
845.227	2160.69
838.109	2063.22
830.984	2075.36
823.854	2137.96
816.717	2127.6
809.574	2152.25
802.424	2133.5
795.268	2093.84
788.104	2094.71
780.934	2055.15
773.758	2115.95
766.574	1987.37
759.385	2068.97
752.189	2071.24
744.986	2088.77
737.777	2199.17
730.561	2064.16
723.338	2096.86
716.109	2093.55
708.873	2218.73
701.631	2292.6
694.381	2160.86
687.125	2178.16
679.863	2213.31
672.594	2275.9
665.318	2424.93
658.035	2403.47
650.744	2553.46
643.449	2540.14
636.146	2610.33
628.836	2936.12
621.52	3130.14
614.195	3439.81
606.865	3717.54
599.529	4023.36
592.186	4444.31
584.834	4955.57
577.477	5546.03
570.111	5938.56
562.74	6240.84
555.361	6378.61
547.977	6342.84
540.584	6215.18
533.186	6053.96
525.779	5772.91
518.365	5222.68
510.945	4814.94
503.52	4390.45
496.084	4134.84
488.645	3910.61
481.195	3681.42
473.74	3651.1
466.277	3373.02
458.809	3171.73
451.332	3160.68
443.848	3042.79
436.355	3023.86
428.857	2934.3
421.354	2807.61
413.84	2831.52
406.32	2780.93
398.793	2714.5
391.258	2816.68
383.717	2701.29
376.168	2640.4
368.611	2652.38
361.047	2514.99
353.477	2421.43
345.896	2477.09
338.311	2424.59
330.717	2473.54
323.117	2405.34
315.508	2329.39
307.891	2363.84
300.268	2213.32
292.637	2152.17
284.998	2142.18
277.352	2202.78
269.697	2167.93
262.035	2234.9
254.365	2170.08
246.688	2049.41
239.002	2074.65
231.311	2079.04
223.609	2022.4
215.9	2094.25
208.184	2050.65
200.459	2057.61
192.727	2015.41
184.986	2017.21
177.238	2062.85
169.482	2082.62
161.717	2149.97
153.945	2254.46
146.164	2248.25
138.375	2245.88
130.578	2248.64
122.771	2390.98
114.959	2378.21
107.137	2517.52
99.3066	2634.83
91.4668	2699.59
83.6211	2877.57
75.7637	2990.26
67.9004	3053.11
60.0273	2381.94
52.1465	544.103
44.2559	112.756
40.3086	55.7137

File: C3_02159_532nm_5sec_5per_50x.txt
#Wave		#Intensity
1818.91	2316.68
1812.64	2396.73
1806.37	2370.98
1800.1	2322.95
1793.82	2375.28
1787.53	2476.84
1781.24	2397.02
1774.95	2376.09
1768.65	2451.99
1762.35	2408.82
1756.04	2335.62
1749.72	2359.1
1743.4	2577.12
1737.08	2445.44
1730.75	2310.81
1724.42	2373.66
1718.08	2502.63
1711.73	2384.01
1705.38	2430.88
1699.03	2443.06
1692.67	2409.63
1686.3	2347.98
1679.93	2448.06
1673.56	2417.82
1667.18	2393.89
1660.79	2431.05
1654.4	2485.34
1648	2456.71
1641.6	2378.15
1635.19	2368.36
1628.78	2573.71
1622.36	2460.96
1615.94	2416.88
1609.51	2467.71
1603.07	2439.21
1596.63	2472.85
1590.19	2455.25
1583.74	2460.91
1577.28	2429.4
1570.82	2401.02
1564.35	2479.35
1557.88	2472.6
1551.4	2348.57
1544.92	2465.27
1538.43	2480.09
1531.93	2414.85
1525.43	2425.07
1518.92	2419.9
1512.41	2373.29
1505.89	2401.91
1499.37	2369.17
1492.84	2465.1
1486.31	2389.52
1479.77	2346.17
1473.22	2362.45
1466.67	2383.27
1460.11	2407.1
1453.55	2362.34
1446.98	2361.79
1440.4	2435.74
1433.82	2375.87
1427.24	2399.58
1420.64	2414.14
1414.05	2436.25
1407.44	2331.17
1400.83	2309.45
1394.22	2352.73
1387.6	2392.92
1380.97	2386.27
1374.33	2396.21
1367.7	2369.99
1361.05	2342.31
1354.4	2283.11
1347.74	2303.61
1341.08	2399.08
1334.41	2381.95
1327.74	2280.97
1321.05	2295.4
1314.37	2448.83
1307.68	2376.44
1300.98	2345.96
1294.27	2357.27
1287.56	2371.55
1280.85	2339.66
1274.12	2353.92
1267.39	2328.03
1260.66	2394.22
1253.92	2366.86
1247.17	2462.53
1240.42	2461.79
1233.66	2444.79
1226.89	2467.71
1220.12	2484.68
1213.35	2433.77
1206.56	2584.84
1199.77	2553.06
1192.98	2574.3
1186.18	2573.45
1179.37	2585.81
1172.55	2624.56
1165.73	2664.69
1158.91	2684.25
1152.07	2697.92
1145.24	2894.29
1138.39	2935.48
1131.54	2833.61
1124.68	2864.58
1117.82	2972.68
1110.95	2952.53
1104.07	3031.28
1097.19	3075.01
1090.3	3107.06
1083.41	3057.85
1076.51	3044.94
1069.6	3029.16
1062.69	3014.85
1055.77	2993.33
1048.84	3044.03
1041.91	2907.16
1034.97	2880.03
1028.03	2877.42
1021.07	2905.01
1014.12	2905.25
1007.15	2876.77
1000.18	2842.61
993.205	2772.68
986.223	2787.35
979.234	2824.87
972.238	2685.11
965.236	2684.1
958.229	2674.53
951.215	2706.31
944.193	2565.74
937.166	2621.73
930.133	2575.29
923.092	2729.14
916.045	2685.51
908.992	2605.12
901.934	2606.99
894.867	2608.87
887.795	2671.51
880.717	2619.65
873.631	2514.27
866.539	2544.4
859.441	2527.99
852.338	2674.84
845.227	2554.31
838.109	2471.93
830.984	2511.77
823.854	2453.4
816.717	2501.58
809.574	2570.66
802.424	2491.42
795.268	2472.38
788.104	2439.41
780.934	2566.85
773.758	2526.88
766.574	2477.25
759.385	2512.52
752.189	2514.39
744.986	2498.2
737.777	2640.11
730.561	2637.69
723.338	2574.37
716.109	2569.23
708.873	2769.95
701.631	2862.64
694.381	2727.62
687.125	2744.39
679.863	2783.16
672.594	2783.34
665.318	2940.14
658.035	2905.85
650.744	3055.38
643.449	3001.86
636.146	3197.55
628.836	3340.91
621.52	3564.61
614.195	3811.1
606.865	3890.74
599.529	4114.65
592.186	4470.17
584.834	4946.05
577.477	5503.91
570.111	5781.1
562.74	6168.97
555.361	6504.61
547.977	6585.13
540.584	6572.19
533.186	6575.46
525.779	6427.55
518.365	6281.24
510.945	5809.18
503.52	5364.91
496.084	5162.17
488.645	5043.08
481.195	4712.16
473.74	4588.35
466.277	4267.84
458.809	3961.32
451.332	4029.74
443.848	3826.86
436.355	3851.21
428.857	3676.87
421.354	3609.41
413.84	3468.88
406.32	3401.72
398.793	3355.94
391.258	3469.44
383.717	3436.92
376.168	3339.56
368.611	3270.16
361.047	3109.7
353.477	3067.05
345.896	3061.41
338.311	3071.58
330.717	3121.22
323.117	3108.93
315.508	2992.87
307.891	2912.47
300.268	2808.61
292.637	2839.87
284.998	2882.84
277.352	2921.79
269.697	2870.54
262.035	2904.19
254.365	2842.61
246.688	2782.45
239.002	2753.62
231.311	2736.53
223.609	2788.26
215.9	2835.99
208.184	2782.57
200.459	2749.95
192.727	2704.45
184.986	2704.24
177.238	2733.7
169.482	2808.18
161.717	2945.58
153.945	3055.68
146.164	3039.63
138.375	3049.27
130.578	3065.28
122.771	3167.05
114.959	3180.32
107.137	3360.96
99.3066	3404.6
91.4668	3541.22
83.6211	3750.14
75.7637	3869.52
67.9004	3916.17
60.0273	3081.54
52.1465	672.201
44.2559	84.8834
40.3086	59.5124

File: C3_02160_532nm_5sec_1per_50x.txt
#Wave		#Intensity
1818.91	130.922
1812.64	157.974
1806.37	170.608
1800.1	151.358
1793.82	138.505
1787.53	152.714
1781.24	138.29
1774.95	147.711
1768.65	136.486
1762.35	139.55
1756.04	160.039
1749.72	139.329
1743.4	132.89
1737.08	113.815
1730.75	123.201
1724.42	116.789
1718.08	135.618
1711.73	129.206
1705.38	127.527
1699.03	103.826
1692.67	132.035
1686.3	125.644
1679.93	117.695
1673.56	148.958
1667.18	142.568
1660.79	117.404
1654.4	125.127
1648	142.214
1641.6	113.989
1635.19	138.857
1628.78	173.036
1622.36	147.969
1615.94	163.408
1609.51	172.6
1603.07	160.025
1596.63	189.384
1590.19	179.917
1583.74	178.214
1577.28	162.579
1570.82	176.364
1564.35	160.756
1557.88	155.985
1551.4	146.593
1544.92	164.968
1538.43	164.826
1531.93	183.153
1525.43	121.484
1518.92	162.863
1512.41	198.03
1505.89	174.851
1499.37	176.232
1492.84	173.016
1486.31	166.747
1479.77	146.731
1473.22	146.603
1466.67	164.784
1460.11	173.787
1453.55	162.973
1446.98	158.264
1440.4	180.932
1433.82	161.024
1427.24	174.542
1420.64	177.421
1414.05	177.265
1407.44	181.649
1400.83	149.728
1394.22	178.306
1387.6	143.424
1380.97	177.99
1374.33	177.832
1367.7	146.054
1361.05	177.516
1354.4	147.298
1347.74	180.204
1341.08	148.536
1334.41	166.392
1327.74	158.755
1321.05	139.16
1314.37	158.471
1307.68	180.735
1300.98	167.142
1294.27	138.663
1287.56	150.456
1280.85	154.786
1274.12	157.622
1267.39	123.31
1260.66	123.199
1253.92	126.055
1247.17	142.24
1240.42	143.592
1233.66	155.295
1226.89	138.901
1220.12	147.634
1213.35	147.501
1206.56	119.368
1199.77	138.401
1192.98	130.922
1186.18	144.031
1179.37	104.255
1172.55	137.903
1165.73	131.915
1158.91	95.1863
1152.07	146.308
1145.24	122.788
1138.39	146.044
1131.54	116.73
1124.68	107.877
1117.82	135.453
1110.95	130.965
1104.07	113.4
1097.19	123.465
1090.3	117.549
1083.41	111.643
1076.51	128.925
1069.6	134.597
1062.69	124.353
1055.77	108.349
1048.84	124.128
1041.91	100.943
1034.97	126.785
1028.03	105.078
1021.07	89.1637
1014.12	125.003
1007.15	114.841
1000.18	111.869
993.205	103.17
986.223	127.413
979.234	121.576
972.238	107.176
965.236	112.789
958.229	118.393
951.215	105.459
944.193	125.297
937.166	145.098
930.133	126.49
923.092	120.695
916.045	136.191
908.992	119.059
901.934	110.454
894.867	113.183
887.795	103.185
880.717	111.565
873.631	110.052
866.539	98.6747
859.441	115.485
852.338	116.787
845.227	111.057
838.109	105.338
830.984	94.0158
823.854	114.959
816.717	131.662
809.574	125.944
802.424	111.848
795.268	96.3807
788.104	107.457
780.934	118.513
773.758	97.5093
766.574	118.296
759.385	125.139
752.189	80.5715
744.986	129.074
737.777	122.022
730.561	108.057
723.338	98.2688
716.109	116.155
708.873	109.14
701.631	120.082
694.381	96.5286
687.125	77.1517
679.863	89.4684
672.594	115.514
665.318	103.042
658.035	100.202
650.744	120.679
643.449	126.048
636.146	101.292
628.836	124.447
621.52	105.203
614.195	92.8204
606.865	95.4615
599.529	100.822
592.186	99.3673
584.834	122.393
577.477	84.2367
570.111	86.8727
562.74	117.982
555.361	98.9036
547.977	120.468
540.584	104.127
533.186	133.752
525.779	117.429
518.365	105.182
510.945	115.86
503.52	90.1779
496.084	92.7818
488.645	92.6939
481.195	91.2638
473.74	105.926
466.277	96.4484
458.809	103.048
451.332	80.2204
443.848	86.8223
436.355	94.7458
428.857	126.651
421.354	75.9174
413.84	105.118
406.32	91.7229
398.793	106.243
391.258	92.8723
383.717	103.386
376.168	109.906
368.611	103.185
361.047	89.8682
353.477	79.2179
345.896	87.0543
338.311	117.276
330.717	73.7191
323.117	107.839
315.508	89.3394
307.891	192.939
300.268	89.1623
292.637	47.1566
284.998	109.922
277.352	84.9739
269.697	95.3365
262.035	93.936
254.365	130.335
246.688	98.9548
239.002	87.1481
231.311	88.359
223.609	88.2691
215.9	90.7724
208.184	86.7933
200.459	89.2923
192.727	113.763
184.986	92.9826
177.238	96.7566
169.482	92.7899
161.717	100.418
153.945	105.457
146.164	64.2356
138.375	103.952
130.578	99.9967
122.771	75.5585
114.959	80.5955
107.137	106.068
99.3066	79.147
91.4668	103.291
83.6211	95.5369
75.7637	97.9786
67.9004	127.107
60.0273	87.6086
52.1465	58.342
44.2559	62.0789
40.3086	39.2528

File: C3_02160_532nm_5sec_5per_50x.txt
#Wave		#Intensity
1818.91	1994.16
1812.64	2012.17
1806.37	2072.81
1800.1	2060.06
1793.82	1939.07
1787.53	2017.1
1781.24	2102.96
1774.95	1971.07
1768.65	2018.72
1762.35	2182.06
1756.04	2135.96
1749.72	2063.02
1743.4	2045.56
1737.08	2088.19
1730.75	2056.51
1724.42	2099.04
1718.08	2139.93
1711.73	2095.66
1705.38	2043.58
1699.03	2104.84
1692.67	2128.27
1686.3	2088.84
1679.93	2101.25
1673.56	2166.94
1667.18	2152.62
1660.79	2224.42
1654.4	2316.42
1648	2278.55
1641.6	2282.9
1635.19	2383.96
1628.78	2480.18
1622.36	2501.46
1615.94	2544.49
1609.51	2707.17
1603.07	2686.24
1596.63	2645.16
1590.19	2737.53
1583.74	2839.03
1577.28	2701.91
1570.82	2711.98
1564.35	2748.31
1557.88	2755.22
1551.4	2657.19
1544.92	2674.95
1538.43	2708.08
1531.93	2627.25
1525.43	2600.38
1518.92	2573.55
1512.41	2608.16
1505.89	2607.43
1499.37	2674.13
1492.84	2710.08
1486.31	2608.28
1479.77	2506.66
1473.22	2600.68
1466.67	2631.97
1460.11	2591.56
1453.55	2528.36
1446.98	2626.58
1440.4	2631.87
1433.82	2608.29
1427.24	2621.17
1420.64	2652.22
1414.05	2669.58
1407.44	2724.74
1400.83	2678.47
1394.22	2715.39
1387.6	2744.69
1380.97	2648.73
1374.33	2684.06
1367.7	2647.04
1361.05	2814.69
1354.4	2773.1
1347.74	2701.56
1341.08	2745.66
1334.41	2731.22
1327.74	2752.75
1321.05	2588.68
1314.37	2729.89
1307.68	2745.37
1300.98	2651.88
1294.27	2567.51
1287.56	2559.25
1280.85	2551
1274.12	2416.37
1267.39	2466.2
1260.66	2431.33
1253.92	2374.28
1247.17	2373.63
1240.42	2414.42
1233.66	2400.42
1226.89	2377.57
1220.12	2424.15
1213.35	2367.39
1206.56	2356.42
1199.77	2455.89
1192.98	2408.07
1186.18	2294.21
1179.37	2365.55
1172.55	2397.16
1165.73	2301.19
1158.91	2385.51
1152.07	2383.36
1145.24	2416.29
1138.39	2484.21
1131.54	2404.63
1124.68	2374.76
1117.82	2490.59
1110.95	2550.91
1104.07	2506.44
1097.19	2460.59
1090.3	2557.05
1083.41	2522.84
1076.51	2504.62
1069.6	2453.14
1062.69	2371.39
1055.77	2440.03
1048.84	2397.41
1041.91	2418.31
1034.97	2316.7
1028.03	2321.8
1021.07	2408.86
1014.12	2398.05
1007.15	2390.13
1000.18	2392.27
993.205	2327.05
986.223	2299.17
979.234	2391.48
972.238	2243.55
965.236	2202.96
958.229	2259.45
951.215	2164.76
944.193	2206.93
937.166	2173.63
930.133	2205.76
923.092	2287.53
916.045	2252.82
908.992	2199.75
901.934	2132.61
894.867	2161.79
887.795	2157
880.717	2163.51
873.631	2206.69
866.539	2176.48
859.441	2108.3
852.338	2131.71
845.227	2261.91
838.109	2146.08
830.984	2132.9
823.854	2170.2
816.717	2197.63
809.574	2219.42
802.424	2271.91
795.268	2156.69
788.104	2098.9
780.934	2225.25
773.758	2095.06
766.574	2249.01
759.385	2202.45
752.189	2146.26
744.986	2224.79
737.777	2211.65
730.561	2331.53
723.338	2280.94
716.109	2270.55
708.873	2344.44
701.631	2429.24
694.381	2374.6
687.125	2393.08
679.863	2433.54
672.594	2401.04
665.318	2511.48
658.035	2612.11
650.744	2674.14
643.449	2755.24
636.146	2729.42
628.836	2983.98
621.52	3142.43
614.195	3286.93
606.865	3442.07
599.529	3613.26
592.186	3781.4
584.834	4037.62
577.477	4426.5
570.111	4630.04
562.74	4906.42
555.361	5178.21
547.977	5085.37
540.584	5260.45
533.186	5385.2
525.779	5351.79
518.365	5075.7
510.945	4870.17
503.52	4484.67
496.084	4466.98
488.645	4309.59
481.195	4199.48
473.74	4151.24
466.277	3928.93
458.809	3666.9
451.332	3591.2
443.848	3515.63
436.355	3473.57
428.857	3436.9
421.354	3319.06
413.84	3265.3
406.32	3149.15
398.793	3147.44
391.258	3148.37
383.717	3202.31
376.168	3142.26
368.611	3039.98
361.047	2918.07
353.477	2886.17
345.896	2929.51
338.311	2901.6
330.717	2911.91
323.117	2903.77
315.508	2822.07
307.891	2844.22
300.268	2621.11
292.637	2689.24
284.998	2719.27
277.352	2653.8
269.697	2722.97
262.035	2641.95
254.365	2636.68
246.688	2683.5
239.002	2566.32
231.311	2605.29
223.609	2593.55
215.9	2702.43
208.184	2608.98
200.459	2659.36
192.727	2582.93
184.986	2608.68
177.238	2671.77
169.482	2715.39
161.717	2735.74
153.945	2798.47
146.164	2900.88
138.375	2918.37
130.578	2975.54
122.771	3068.44
114.959	3109.96
107.137	3176.94
99.3066	3108.44
91.4668	3346.12
83.6211	3480.09
75.7637	3643.02
67.9004	3715.34
60.0273	2954.57
52.1465	720.397
44.2559	121.624
40.3086	56.9799