Folder: HTCeramics/PeakFitting/xrdData/jacobson_raman

Note: README.md
This github repo is for short-term storage of python projects for any undergrads working for Geoff Brennecka.
This repository is open to the current students at CSM plus the executive high school students from JeffCo.
If you have questions about using git or GitHub, I highly recommend at least reading chapter 2 of the Pro Git book by Scott Chacon and Ben Straub (https://git-scm.com/book/en/v2).
If you have questions about anything else, feel free to ask in the group chat or email one of the CSM students directly.
New to Python? Learn it the Hard Way. Poke around on Slack for a current link to Python 3 the Hard Way (by Zed Shaw). Get through at least excercise 20 to develop some familiarity with the basic operations of Python. Or don't, I'm not a README, not a cop.

Most of the code here is python with modules from anaconda [http://anaconda.org/]. If you have base conda installed, most of the modules will exist on your machine,
like numPy, matplotlib, and others. 
A few modules (generally in testing) may need to be installed separately.
I suggest doing any additional installations in a separate *environment*, which can be set up with
  $ conda create --name <Name>
and activated with
  $ conda activate <Name>
It's not necessary, but it's nice to keep a clean workspace, and can help avoid conflicts if you start tinkering with extra modules (totally not speaking from experience). 

If you already have an IDE that you're familiar with, cool. It doesn't matter what you use, though we have seen some 
funky header artifacts from PyCharm. If you're new to all of this, I recommend Atom. It's free, has a ton of available plugins, 
is built with GitHub integration, and looks nice, while being fairly lightweight.

File: C3_02124_532nm_5sec_5per_50x.txt
#Wave		#Intensity
1818.91	2342.22
1812.64	2328.12
1806.37	2369.38
1800.1	2413.76
1793.82	2311.6
1787.53	2392.52
1781.24	2446.29
1774.95	2425.32
1768.65	2459.92
1762.35	2510.32
1756.04	2440.2
1749.72	2433.51
1743.4	2498.02
1737.08	2475.48
1730.75	2452.96
1724.42	2477.82
1718.08	2587.79
1711.73	2502.18
1705.38	2523.77
1699.03	2515.42
1692.67	2579.39
1686.3	2527.02
1679.93	2534.37
1673.56	2605.98
1667.18	2570.93
1660.79	2567.24
1654.4	2624.54
1648	2628.61
1641.6	2556.16
1635.19	2607.07
1628.78	2718.69
1622.36	2666.56
1615.94	2598.96
1609.51	2727.39
1603.07	2610.11
1596.63	2654.48
1590.19	2652.23
1583.74	2784.8
1577.28	2585.78
1570.82	2594.41
1564.35	2692.66
1557.88	2758.31
1551.4	2570.78
1544.92	2705.78
1538.43	2729.64
1531.93	2714.98
1525.43	2726.47
1518.92	2664.2
1512.41	2709.48
1505.89	2653.45
1499.37	2595.97
1492.84	2679.46
1486.31	2674.06
1479.77	2622.82
1473.22	2605.26
1466.67	2685.37
1460.11	2783.64
1453.55	2676.1
1446.98	2623.54
1440.4	2723.1
1433.82	2658.42
1427.24	2663.67
1420.64	2762.92
1414.05	2674.12
1407.44	2745.93
1400.83	2651.25
1394.22	2694.23
1387.6	2746.2
1380.97	2601.97
1374.33	2676.52
1367.7	2666.62
1361.05	2670.27
1354.4	2708.47
1347.74	2650.5
1341.08	2730.66
1334.41	2714.73
1327.74	2763.23
1321.05	2702.4
1314.37	2768.76
1307.68	2926.11
1300.98	2801.12
1294.27	2716.61
1287.56	2769.29
1280.85	2906.71
1274.12	2846.11
1267.39	2720.25
1260.66	2852.88
1253.92	2971.93
1247.17	2958.88
1240.42	2991.75
1233.66	3002.37
1226.89	3236.1
1220.12	3245
1213.35	3245.03
1206.56	3418.95
1199.77	3573.41
1192.98	3617.26
1186.18	3619.88
1179.37	3732.61
1172.55	4013.85
1165.73	4083.52
1158.91	4065.19
1152.07	4197.58
1145.24	4354.58
1138.39	4480.63
1131.54	4546.62
1124.68	4491.48
1117.82	4834.07
1110.95	4867.53
1104.07	4915.46
1097.19	4880.51
1090.3	4778.86
1083.41	4923.88
1076.51	4986.06
1069.6	4673.27
1062.69	4616.98
1055.77	4679.25
1048.84	4602.85
1041.91	4441.49
1034.97	4273.22
1028.03	4180.1
1021.07	4193.57
1014.12	4145.22
1007.15	4058.2
1000.18	4031.57
993.205	3810.11
986.223	3878.23
979.234	3853.26
972.238	3621.12
965.236	3613.55
958.229	3544.65
951.215	3458.77
944.193	3528.24
937.166	3473.82
930.133	3464.98
923.092	3538.51
916.045	3521.1
908.992	3425.77
901.934	3398.58
894.867	3330.41
887.795	3475.79
880.717	3417.55
873.631	3341.07
866.539	3216.79
859.441	3219.5
852.338	3293.95
845.227	3257.21
838.109	3265.47
830.984	3178.3
823.854	3126.33
816.717	3201.91
809.574	3196.18
802.424	3177.88
795.268	3116.31
788.104	3077.18
780.934	3077.15
773.758	3123.08
766.574	3024.19
759.385	3043.67
752.189	3000.59
744.986	3140.79
737.777	3114.34
730.561	3180.74
723.338	3134.91
716.109	3156.92
708.873	3254.87
701.631	3290.52
694.381	3348.16
687.125	3339.56
679.863	3335.11
672.594	3300.4
665.318	3508.93
658.035	3601.77
650.744	3627.23
643.449	3710.19
636.146	3825.84
628.836	4078.02
621.52	4344.76
614.195	4800.72
606.865	5074.46
599.529	5389.92
592.186	5838.17
584.834	6450.13
577.477	7242.99
570.111	7644.79
562.74	8493.35
555.361	8797
547.977	8588.42
540.584	8611.46
533.186	8239.93
525.779	8010.81
518.365	7494.88
510.945	6903.11
503.52	6329.95
496.084	5929.97
488.645	5686.57
481.195	5435.56
473.74	5201.11
466.277	4959.06
458.809	4650.54
451.332	4408.11
443.848	4413.24
436.355	4283.58
428.857	4303.46
421.354	4188.78
413.84	4240.63
406.32	4261.79
398.793	4220.49
391.258	4184.56
383.717	4005.54
376.168	4005.62
368.611	3958.06
361.047	3765.21
353.477	3626.86
345.896	3768.4
338.311	3676.41
330.717	3758.36
323.117	3711.25
315.508	3595.91
307.891	3613.35
300.268	3403.9
292.637	3439.81
284.998	3484.8
277.352	3550.6
269.697	3518.31
262.035	3523.91
254.365	3434.33
246.688	3460.81
239.002	3275.21
231.311	3225.1
223.609	3262.06
215.9	3297.63
208.184	3261.87
200.459	3310.29
192.727	3259.05
184.986	3189.82
177.238	3296.17
169.482	3426.78
161.717	3739.91
153.945	3934.06
146.164	3855.42
138.375	3702.5
130.578	3831.92
122.771	3912.39
114.959	3976.04
107.137	4112.38
99.3066	4277.77
91.4668	4834.27
83.6211	4831.62
75.7637	4830.22
67.9004	4855.49
60.0273	3928.42
52.1465	880.203
44.2559	130.492
40.3086	63.311

File: C3_02125_532nm_5sec_1per_50x.txt
#Wave		#Intensity
1818.91	314.532
1812.64	327.117
1806.37	352.378
1800.1	328.208
1793.82	331.138
1787.53	343.607
1781.24	330.623
1774.95	339.895
1768.65	326.932
1762.35	366.319
1756.04	318.493
1749.72	302.408
1743.4	344.882
1737.08	341.445
1730.75	330.115
1724.42	320.38
1718.08	370.585
1711.73	337.196
1705.38	340.071
1699.03	338.222
1692.67	314.368
1686.3	303.117
1679.93	373.485
1673.56	324.571
1667.18	314.903
1660.79	347.516
1654.4	370.689
1648	351.628
1641.6	337.282
1635.19	335.44
1628.78	389.72
1622.36	347.339
1615.94	337.709
1609.51	340.535
1603.07	365.105
1596.63	333.75
1590.19	317.957
1583.74	313.038
1577.28	323.61
1570.82	331.069
1564.35	343.152
1557.88	336.681
1551.4	305.53
1544.92	345.354
1538.43	357.38
1531.93	352.455
1525.43	365.99
1518.92	356.455
1512.41	340.796
1505.89	305.223
1499.37	347.867
1492.84	335.315
1486.31	354.91
1479.77	327.089
1473.22	343.601
1466.67	300.579
1460.11	295.742
1453.55	353.361
1446.98	340.877
1440.4	337.537
1433.82	323.568
1427.24	365.78
1420.64	345.744
1414.05	315.137
1407.44	339.079
1400.83	322.143
1394.22	350.568
1387.6	333.65
1380.97	289.611
1374.33	316.481
1367.7	320.717
1361.05	321.936
1354.4	296.098
1347.74	294.333
1341.08	291.07
1334.41	299.805
1327.74	311.519
1321.05	282.81
1314.37	333.387
1307.68	325.621
1300.98	325.33
1294.27	301.182
1287.56	341.134
1280.85	346.781
1274.12	310.782
1267.39	304.561
1260.66	357.723
1253.92	349.987
1247.17	364.489
1240.42	381.926
1233.66	374.187
1226.89	394.538
1220.12	392.707
1213.35	417.428
1206.56	464.21
1199.77	493.239
1192.98	478.084
1186.18	477.653
1179.37	464.007
1172.55	579.485
1165.73	507.142
1158.91	557.938
1152.07	589.622
1145.24	540.851
1138.39	578.334
1131.54	621.585
1124.68	607.903
1117.82	630.657
1110.95	621.356
1104.07	596.078
1097.19	637.662
1090.3	603.707
1083.41	640.858
1076.51	599.717
1069.6	577.465
1062.69	527.779
1055.77	544.637
1048.84	571.567
1041.91	527.788
1034.97	484.087
1028.03	505.24
1021.07	465.952
1014.12	469.84
1007.15	453.623
1000.18	454.646
993.205	406.947
986.223	439.505
979.234	420.512
972.238	397.266
965.236	406.899
958.229	405.103
951.215	384.783
944.193	397.248
937.166	375.549
930.133	332.57
923.092	401.845
916.045	366.013
908.992	384.106
901.934	379.508
894.867	377.748
887.795	367.509
880.717	340.343
873.631	358.375
866.539	336.904
859.441	352.088
852.338	325.033
845.227	344.418
838.109	335.676
830.984	342.386
823.854	339.269
816.717	345.963
809.574	323.257
802.424	327.156
795.268	311.491
788.104	315.393
780.934	315.104
773.758	327.353
766.574	308.961
759.385	318.41
752.189	298.67
744.986	334.481
737.777	311.988
730.561	344.95
723.338	326.64
716.109	342.933
708.873	342.618
701.631	327.12
694.381	337.85
687.125	337.539
679.863	355.121
672.594	331.415
665.318	342.1
658.035	356.883
650.744	368.895
643.449	378.143
636.146	399.694
628.836	474.538
621.52	516.452
614.195	607.427
606.865	703.688
599.529	765.706
592.186	830.33
584.834	920.67
577.477	1116.82
570.111	1121.2
562.74	1173.04
555.361	1188.2
547.977	1180.32
540.584	1098.07
533.186	1048.4
525.779	1025.82
518.365	930.455
510.945	833.924
503.52	737.574
496.084	654.852
488.645	591.091
481.195	593.215
473.74	540.358
466.277	503.675
458.809	464.385
451.332	470.626
443.848	411.404
436.355	392.327
428.857	433.279
421.354	404.893
413.84	423.131
406.32	393.478
398.793	393.098
391.258	411.292
383.717	410.893
376.168	341.636
368.611	329.398
361.047	348.9
353.477	344.598
345.896	313.923
338.311	333.381
330.717	348.849
323.117	335.354
315.508	320.571
307.891	396.379
300.268	270.109
292.637	311.757
284.998	295.743
277.352	273.224
269.697	304.293
262.035	297.464
254.365	289.344
246.688	278.636
239.002	260.144
231.311	244.287
223.609	266.105
215.9	273.614
208.184	268.152
200.459	254.936
192.727	266.309
184.986	287.988
177.238	260.598
169.482	282.236
161.717	287.091
153.945	294.508
146.164	296.769
138.375	287.473
130.578	238.454
122.771	293.269
114.959	292.958
107.137	323.316
99.3066	299.993
91.4668	336.652
83.6211	314.635
75.7637	332.109
67.9004	345.731
60.0273	305.995
52.1465	88.7813
44.2559	59.5451
40.3086	32.9217

File: C3_02125_532nm_5sec_5per_50x.txt
#Wave		#Intensity
1818.91	1709.97
1812.64	1745.69
1806.37	1774.64
1800.1	1762.12
1793.82	1719.37
1787.53	1748.26
1781.24	1727.82
1774.95	1721.71
1768.65	1836.21
1762.35	1839.52
1756.04	1755.67
1749.72	1755.86
1743.4	1877.87
1737.08	1753.07
1730.75	1740.61
1724.42	1848.11
1718.08	1840.31
1711.73	1789.97
1705.38	1812.14
1699.03	1845.27
1692.67	1813.9
1686.3	1796.71
1679.93	1908.23
1673.56	1906.66
1667.18	1836.15
1660.79	1914.47
1654.4	1931.65
1648	1923.8
1641.6	1942.49
1635.19	1939.31
1628.78	1897.16
1622.36	1903.35
1615.94	1855.07
1609.51	1977.9
1603.07	1851.94
1596.63	1918.67
1590.19	1909.29
1583.74	1938.66
1577.28	1896.76
1570.82	1915.25
1564.35	1981.63
1557.88	1922.79
1551.4	1913.42
1544.92	1936.45
1538.43	1976.37
1531.93	1988.52
1525.43	1991.42
1518.92	1926.7
1512.41	1946.53
1505.89	1857.41
1499.37	1872.66
1492.84	1921.55
1486.31	1901.52
1479.77	1866.24
1473.22	1849.34
1466.67	1930.11
1460.11	1974.16
1453.55	1852.1
1446.98	1867.21
1440.4	1917.27
1433.82	1939.89
1427.24	1838.01
1420.64	1936.47
1414.05	1919.61
1407.44	1887.64
1400.83	1892.02
1394.22	1916.03
1387.6	1926.42
1380.97	1814.59
1374.33	1871.76
1367.7	1874.61
1361.05	1903.03
1354.4	1914.87
1347.74	1823.06
1341.08	1911.46
1334.41	1843.8
1327.74	1845.15
1321.05	1894.38
1314.37	2012.28
1307.68	1977.62
1300.98	1916.16
1294.27	1948.74
1287.56	1996.15
1280.85	2019.67
1274.12	1936.07
1267.39	2007.13
1260.66	2024.63
1253.92	2104.37
1247.17	2035.81
1240.42	2149.44
1233.66	2148.99
1226.89	2271.18
1220.12	2248.47
1213.35	2371.82
1206.56	2425.68
1199.77	2533.92
1192.98	2503.69
1186.18	2558.75
1179.37	2616.65
1172.55	2815.27
1165.73	2872.83
1158.91	2864.38
1152.07	2959.82
1145.24	3097.47
1138.39	3185.22
1131.54	3275.72
1124.68	3230.49
1117.82	3408.17
1110.95	3377.44
1104.07	3452.89
1097.19	3327.75
1090.3	3384.24
1083.41	3408.73
1076.51	3383.91
1069.6	3276.64
1062.69	3172.46
1055.77	3211.48
1048.84	3142.17
1041.91	2986.47
1034.97	2874.27
1028.03	2900.45
1021.07	2928.02
1014.12	2850.65
1007.15	2721.74
1000.18	2714.97
993.205	2656.62
986.223	2559.72
979.234	2710.44
972.238	2473.62
965.236	2497.07
958.229	2471.98
951.215	2428.41
944.193	2325.11
937.166	2297.39
930.133	2272.56
923.092	2362.79
916.045	2312.41
908.992	2266.37
901.934	2214.74
894.867	2303.27
887.795	2344.99
880.717	2289.19
873.631	2229.26
866.539	2156.75
859.441	2173.09
852.338	2140.15
845.227	2223.95
838.109	2139.06
830.984	2023.44
823.854	2130.95
816.717	2145.81
809.574	2170.44
802.424	2098.55
795.268	2134.34
788.104	2131
780.934	2130.44
773.758	2072.77
766.574	1960.93
759.385	2052.29
752.189	2000.4
744.986	2070.73
737.777	2186.69
730.561	2127.88
723.338	2105.17
716.109	2076.96
708.873	2211.82
701.631	2264.99
694.381	2182.92
687.125	2229.13
679.863	2242.22
672.594	2220.89
665.318	2378.21
658.035	2432.29
650.744	2509.58
643.449	2533.29
636.146	2563.79
628.836	2885.52
621.52	3005.81
614.195	3467.11
606.865	3630.26
599.529	3959.33
592.186	4278.24
584.834	4746.14
577.477	5388.43
570.111	5802.82
562.74	6246.27
555.361	6385.38
547.977	6069.42
540.584	5962.3
533.186	5814.83
525.779	5547.5
518.365	5051.42
510.945	4623.63
503.52	4167.03
496.084	3896.84
488.645	3667.45
481.195	3619.68
473.74	3357.46
466.277	3169.4
458.809	2962.96
451.332	2981.52
443.848	2869.14
436.355	2815.68
428.857	2788.98
421.354	2710.39
413.84	2783.62
406.32	2772.96
398.793	2814.1
391.258	2668.09
383.717	2674.78
376.168	2621.86
368.611	2455.27
361.047	2332.61
353.477	2319.76
345.896	2396.63
338.311	2373.2
330.717	2381.39
323.117	2285.67
315.508	2293.92
307.891	2235.21
300.268	2184.48
292.637	2082.75
284.998	2180.13
277.352	2193.63
269.697	2141.81
262.035	2156.61
254.365	2132.29
246.688	2113.21
239.002	2048.63
231.311	1976.38
223.609	2034.08
215.9	2073.5
208.184	2031.22
200.459	1996.78
192.727	1952.07
184.986	1973.3
177.238	2049.95
169.482	2123.86
161.717	2308.32
153.945	2285.33
146.164	2329.18
138.375	2191.98
130.578	2198.64
122.771	2334.63
114.959	2416.58
107.137	2426.79
99.3066	2544.19
91.4668	2802.88
83.6211	2798.59
75.7637	2894.82
67.9004	3004.81
60.0273	2341.31
52.1465	523.81
44.2559	119.09
40.3086	27.8569

File: C3_02125_532nm_5sec_5per_50x_2.txt
#Wave		#Intensity
1818.91	2029.29
1812.64	2032.91
1806.37	2066.43
1800.1	2064.84
1793.82	2004.34
1787.53	2110.96
1781.24	2145.87
1774.95	2118.78
1768.65	2182.19
1762.35	2155.1
1756.04	2159.73
1749.72	2112.1
1743.4	2218
1737.08	2175.13
1730.75	2053.35
1724.42	2102.2
1718.08	2203.01
1711.73	2149.23
1705.38	2180.55
1699.03	2227.54
1692.67	2224.15
1686.3	2211.34
1679.93	2209.53
1673.56	2254.75
1667.18	2185.52
1660.79	2219.72
1654.4	2319.55
1648	2264.48
1641.6	2226.68
1635.19	2307.51
1628.78	2402.23
1622.36	2439.16
1615.94	2329.73
1609.51	2430.39
1603.07	2355.32
1596.63	2357.98
1590.19	2497.12
1583.74	2459.36
1577.28	2375.2
1570.82	2444.34
1564.35	2502.54
1557.88	2432.44
1551.4	2467.39
1544.92	2553.15
1538.43	2532.47
1531.93	2565.69
1525.43	2480.43
1518.92	2572.01
1512.41	2546.76
1505.89	2510.8
1499.37	2496.36
1492.84	2455.91
1486.31	2421.65
1479.77	2398.14
1473.22	2290.67
1466.67	2375.64
1460.11	2352.22
1453.55	2263.34
1446.98	2322.22
1440.4	2405.33
1433.82	2324.22
1427.24	2273.6
1420.64	2344.39
1414.05	2421.1
1407.44	2341.76
1400.83	2232.31
1394.22	2339.13
1387.6	2347.63
1380.97	2199.23
1374.33	2277.16
1367.7	2258.57
1361.05	2229.48
1354.4	2219.99
1347.74	2293.09
1341.08	2301.55
1334.41	2333.98
1327.74	2240.54
1321.05	2257.99
1314.37	2348.66
1307.68	2301.75
1300.98	2328.05
1294.27	2312.54
1287.56	2401.34
1280.85	2427.47
1274.12	2339.05
1267.39	2380.03
1260.66	2383.83
1253.92	2392.07
1247.17	2421.04
1240.42	2485.48
1233.66	2469.93
1226.89	2571.15
1220.12	2567.36
1213.35	2652.07
1206.56	2835.37
1199.77	2822.51
1192.98	2880.27
1186.18	2898.25
1179.37	2982.27
1172.55	3140.96
1165.73	3142.52
1158.91	3171.9
1152.07	3240.73
1145.24	3404.44
1138.39	3451.02
1131.54	3503.35
1124.68	3501.64
1117.82	3696.55
1110.95	3653.92
1104.07	3618.63
1097.19	3667.65
1090.3	3713.67
1083.41	3627.66
1076.51	3688.12
1069.6	3512.55
1062.69	3431.29
1055.77	3445.51
1048.84	3426.51
1041.91	3224.41
1034.97	3103.34
1028.03	3103.41
1021.07	3205.58
1014.12	3023.07
1007.15	2934.19
1000.18	2971.69
993.205	2850.06
986.223	2854.63
979.234	2834.88
972.238	2730.84
965.236	2622.71
958.229	2737.3
951.215	2689.21
944.193	2524.45
937.166	2554.87
930.133	2615.08
923.092	2605.6
916.045	2537.97
908.992	2598.03
901.934	2527.69
894.867	2501.34
887.795	2566.91
880.717	2527.86
873.631	2466.29
866.539	2461.23
859.441	2408.28
852.338	2460.96
845.227	2402.49
838.109	2391.87
830.984	2370.04
823.854	2395.92
816.717	2465.16
809.574	2399.94
802.424	2330.63
795.268	2331.3
788.104	2302.65
780.934	2403.72
773.758	2440.52
766.574	2329.73
759.385	2271.98
752.189	2326.85
744.986	2362.19
737.777	2369.73
730.561	2360.62
723.338	2370.91
716.109	2428.19
708.873	2431.48
701.631	2506.54
694.381	2524.91
687.125	2468.85
679.863	2469.33
672.594	2508.3
665.318	2702.45
658.035	2730.15
650.744	2814.02
643.449	2815.52
636.146	2929.26
628.836	3250.66
621.52	3445.75
614.195	3832.94
606.865	4091.21
599.529	4388.5
592.186	4856.75
584.834	5352.67
577.477	6010.69
570.111	6429.94
562.74	6875.5
555.361	7054.67
547.977	6882.92
540.584	6719.59
533.186	6626.8
525.779	6400.55
518.365	5989.97
510.945	5485.85
503.52	4981.32
496.084	4632.37
488.645	4398.26
481.195	4203.5
473.74	4092.24
466.277	3665.04
458.809	3442.07
451.332	3325.13
443.848	3257.84
436.355	3202.67
428.857	3167.6
421.354	3144.58
413.84	3153.53
406.32	3082.69
398.793	3034.56
391.258	3047.54
383.717	3030
376.168	3050.89
368.611	2864.04
361.047	2742.3
353.477	2620.79
345.896	2759.36
338.311	2632.78
330.717	2686.8
323.117	2665.74
315.508	2539.6
307.891	2529.21
300.268	2396.89
292.637	2326.39
284.998	2494.19
277.352	2358.35
269.697	2485.28
262.035	2430.59
254.365	2347.34
246.688	2361.89
239.002	2300.97
231.311	2270.05
223.609	2261.25
215.9	2386.02
208.184	2300.67
200.459	2258.19
192.727	2257.16
184.986	2263.87
177.238	2295.07
169.482	2412.54
161.717	2482.12
153.945	2611.99
146.164	2620.81
138.375	2560.31
130.578	2564.02
122.771	2713.7
114.959	2781.18
107.137	2843.4
99.3066	2950.14
91.4668	3228.8
83.6211	3263.54
75.7637	3332.55
67.9004	3476.38
60.0273	2703.17
52.1465	615.128
44.2559	105.154
40.3086	44.3177

File: C3_02125_532nm_5sec_10per_50x.txt
#Wave		#Intensity
1818.91	2556.17
1812.64	2623.32
1806.37	2686.68
1800.1	2612.92
1793.82	2567.91
1787.53	2612.05
1781.24	2676.78
1774.95	2596.86
1768.65	2748.76
1762.35	2784.66
1756.04	2752.35
1749.72	2702.67
1743.4	2801.77
1737.08	2796.37
1730.75	2768.86
1724.42	2791.89
1718.08	2775.44
1711.73	2667.63
1705.38	2651.3
1699.03	2712.06
1692.67	2738.15
1686.3	2756.32
1679.93	2914.13
1673.56	2816.09
1667.18	2780.86
1660.79	2842.74
1654.4	2887.31
1648	2839.59
1641.6	2788.82
1635.19	2908.19
1628.78	2936.93
1622.36	2786.5
1615.94	2860.41
1609.51	2971.51
1603.07	2784.12
1596.63	2756.93
1590.19	2906.59
1583.74	2902.57
1577.28	2777.78
1570.82	2793.98
1564.35	2987.9
1557.88	2833.99
1551.4	2853.16
1544.92	2892.34
1538.43	2917.58
1531.93	2984.32
1525.43	2898.71
1518.92	3020.65
1512.41	2912.11
1505.89	2911.12
1499.37	2871.81
1492.84	3008.65
1486.31	2883.65
1479.77	2842.92
1473.22	2864.87
1466.67	2892.88
1460.11	2841.57
1453.55	2869.54
1446.98	2908.11
1440.4	2964.85
1433.82	2972.87
1427.24	2904.99
1420.64	2972.19
1414.05	2990.78
1407.44	3007.81
1400.83	2921.97
1394.22	3067.47
1387.6	2942.46
1380.97	2816.17
1374.33	2979.44
1367.7	2997.88
1361.05	2965.12
1354.4	2930.92
1347.74	2937.32
1341.08	3011.22
1334.41	3020.53
1327.74	2975.9
1321.05	3073.5
1314.37	3114.11
1307.68	3082.94
1300.98	3084.66
1294.27	3034.19
1287.56	3092.55
1280.85	3091.27
1274.12	2999.27
1267.39	3051.55
1260.66	3216.54
1253.92	3124.67
1247.17	3201.88
1240.42	3209.36
1233.66	3307.05
1226.89	3290.77
1220.12	3333.58
1213.35	3411.7
1206.56	3557.47
1199.77	3577.82
1192.98	3639.32
1186.18	3735.98
1179.37	3784.01
1172.55	3890.62
1165.73	3989.71
1158.91	3953.89
1152.07	3975.19
1145.24	4293.19
1138.39	4277.63
1131.54	4294.19
1124.68	4310.72
1117.82	4421.88
1110.95	4580.86
1104.07	4522.92
1097.19	4691.68
1090.3	4716.46
1083.41	4764.39
1076.51	4739.79
1069.6	4561.83
1062.69	4631.44
1055.77	4585.35
1048.84	4698.11
1041.91	4542.43
1034.97	4424.5
1028.03	4361.47
1021.07	4462.5
1014.12	4393.79
1007.15	4306.55
1000.18	4312.68
993.205	4172.64
986.223	4148.81
979.234	4122.16
972.238	3926.93
965.236	3913.37
958.229	4038.19
951.215	3856.38
944.193	3814.43
937.166	3890.63
930.133	3794.71
923.092	3862.26
916.045	3899.88
908.992	3821.22
901.934	3728.53
894.867	3812.85
887.795	3875.81
880.717	3872.28
873.631	3741.77
866.539	3782.06
859.441	3650.45
852.338	3818.79
845.227	3742.2
838.109	3709.29
830.984	3616.1
823.854	3612.8
816.717	3790.18
809.574	3841.3
802.424	3737.12
795.268	3628.94
788.104	3694.01
780.934	3763.13
773.758	3737.39
766.574	3685.26
759.385	3655.46
752.189	3770.19
744.986	3754.24
737.777	3828.44
730.561	3957.92
723.338	3868.47
716.109	3925.76
708.873	4065.82
701.631	4088.3
694.381	4178.31
687.125	4157.92
679.863	4112.79
672.594	4232.76
665.318	4358
658.035	4539.27
650.744	4547.41
643.449	4610.34
636.146	4789.48
628.836	5125.56
621.52	5338.04
614.195	5700.26
606.865	5990.89
599.529	6353.18
592.186	6840.01
584.834	7461.91
577.477	7998.41
570.111	8539.31
562.74	9203.95
555.361	9550.3
547.977	9698.35
540.584	9762.26
533.186	9673.37
525.779	9483.4
518.365	8986.3
510.945	8416.03
503.52	7893.93
496.084	7480.37
488.645	7357.75
481.195	7193.73
473.74	6922.75
466.277	6546.44
458.809	6065.1
451.332	5904.22
443.848	5746.3
436.355	5662.06
428.857	5663.29
421.354	5491.36
413.84	5368.98
406.32	5386.4
398.793	5458.22
391.258	5364.04
383.717	5433.06
376.168	5313.9
368.611	5120.88
361.047	4899.14
353.477	4790.04
345.896	4876.36
338.311	4946.68
330.717	4965.51
323.117	4922.47
315.508	4753.38
307.891	4688.3
300.268	4602.35
292.637	4582.05
284.998	4646.83
277.352	4579.44
269.697	4632.31
262.035	4595.04
254.365	4582.59
246.688	4525.88
239.002	4473.17
231.311	4411.45
223.609	4490.04
215.9	4512.69
208.184	4537.86
200.459	4509.91
192.727	4357.89
184.986	4336.61
177.238	4564.33
169.482	4633.05
161.717	4961.66
153.945	5083.8
146.164	5260.9
138.375	5075.7
130.578	5174.19
122.771	5391.55
114.959	5508.64
107.137	5583.28
99.3066	5872.2
91.4668	6261.21
83.6211	6523.26
75.7637	6582.38
67.9004	6720.15
60.0273	5269.21
52.1465	1131.33
44.2559	152.03
40.3086	62.0448