Folder: HTCeramics/PeakFitting/xrdData/jacobson_raman (part 4)

File: C3_02161_532nm_5sec_5per_50x.txt
#Wave		#Intensity
1818.91	2733.39
1812.64	2735.02
1806.37	2761.62
1800.1	2703.73
1793.82	2690.5
1787.53	2782.26
1781.24	2694.26
1774.95	2736.63
1768.65	2705.91
1762.35	2841.75
1756.04	2779.29
1749.72	2707.42
1743.4	2836.57
1737.08	2745.79
1730.75	2689.88
1724.42	2750.85
1718.08	2895.29
1711.73	2681.81
1705.38	2733.17
1699.03	2759.26
1692.67	2816.74
1686.3	2776.74
1679.93	2903.14
1673.56	2986.99
1667.18	2887.4
1660.79	2844.31
1654.4	3107.85
1648	2986.49
1641.6	2966.83
1635.19	3008.04
1628.78	3172.32
1622.36	3121.38
1615.94	3137.43
1609.51	3282.5
1603.07	3265.75
1596.63	3222.63
1590.19	3254.02
1583.74	3280.7
1577.28	3290.29
1570.82	3188.47
1564.35	3293.95
1557.88	3161.4
1551.4	3346.95
1544.92	3189.9
1538.43	3241.07
1531.93	3235.2
1525.43	3232.4
1518.92	3240.36
1512.41	3335.8
1505.89	3187.2
1499.37	3233.47
1492.84	3201.57
1486.31	3134.53
1479.77	3090.53
1473.22	3035.91
1466.67	3216.35
1460.11	3225.73
1453.55	3020.32
1446.98	3166.81
1440.4	3322.15
1433.82	3206.82
1427.24	3210.06
1420.64	3179.94
1414.05	3422.57
1407.44	3286.34
1400.83	3268.31
1394.22	3280.53
1387.6	3330.46
1380.97	3319.97
1374.33	3182.89
1367.7	3208.68
1361.05	3315.64
1354.4	3296.16
1347.74	3243.67
1341.08	3345.8
1334.41	3320.34
1327.74	3275.44
1321.05	3251.56
1314.37	3356.3
1307.68	3436.94
1300.98	3259.27
1294.27	3172.85
1287.56	3360.69
1280.85	3339.82
1274.12	3128.64
1267.39	3192.69
1260.66	3213.57
1253.92	3103.91
1247.17	3130.76
1240.42	3129.42
1233.66	3086.68
1226.89	3193.25
1220.12	3253.86
1213.35	3118.18
1206.56	3283.37
1199.77	3220.04
1192.98	3228.91
1186.18	3140.75
1179.37	3193.72
1172.55	3318.47
1165.73	3327.2
1158.91	3171.9
1152.07	3256.82
1145.24	3363.51
1138.39	3461.24
1131.54	3385.16
1124.68	3478.31
1117.82	3550.9
1110.95	3522.96
1104.07	3521.22
1097.19	3618.26
1090.3	3583.06
1083.41	3637.81
1076.51	3677.98
1069.6	3492.29
1062.69	3477.56
1055.77	3519.19
1048.84	3586.73
1041.91	3537.33
1034.97	3408.78
1028.03	3553.95
1021.07	3543.54
1014.12	3459.86
1007.15	3380.64
1000.18	3456.45
993.205	3358.75
986.223	3500.29
979.234	3514.28
972.238	3333.89
965.236	3262.33
958.229	3247.95
951.215	3207.95
944.193	3300.43
937.166	3199.28
930.133	3248.95
923.092	3302.8
916.045	3299.79
908.992	3288.29
901.934	3286.71
894.867	3248.35
887.795	3379.67
880.717	3290.45
873.631	3205.62
866.539	3170.28
859.441	3205.41
852.338	3215.15
845.227	3333.12
838.109	3174.18
830.984	3188.12
823.854	3197.83
816.717	3217.31
809.574	3259.16
802.424	3321.89
795.268	3228.06
788.104	3213.94
780.934	3213.79
773.758	3312.53
766.574	3187.03
759.385	3195.23
752.189	3228.42
744.986	3268.48
737.777	3427.71
730.561	3468.9
723.338	3454.63
716.109	3423.8
708.873	3540.84
701.631	3603.84
694.381	3618.44
687.125	3696.39
679.863	3628.29
672.594	3604.31
665.318	3889.5
658.035	4036.89
650.744	4070.18
643.449	4147.25
636.146	4215.95
628.836	4475.98
621.52	4769.67
614.195	5025.95
606.865	5213.56
599.529	5331.33
592.186	5693.88
584.834	6141.43
577.477	6651.98
570.111	6909.09
562.74	7385.4
555.361	7664.35
547.977	7582.72
540.584	7936.66
533.186	8025.12
525.779	8039.16
518.365	7790.2
510.945	7340.96
503.52	6963.89
496.084	6642.64
488.645	6542.31
481.195	6510.6
473.74	6460.16
466.277	5883.35
458.809	5579.31
451.332	5598.04
443.848	5378.97
436.355	5315.1
428.857	5220.68
421.354	5131.75
413.84	5129.47
406.32	4834.73
398.793	4896.46
391.258	4897.02
383.717	4860.46
376.168	4879.57
368.611	4656.54
361.047	4535.7
353.477	4416.4
345.896	4433.18
338.311	4532.92
330.717	4460.01
323.117	4488.49
315.508	4371.06
307.891	4323.42
300.268	4236.52
292.637	4090.83
284.998	4190.13
277.352	4374.19
269.697	4339.77
262.035	4288.44
254.365	4175.94
246.688	4053.24
239.002	4023.12
231.311	3995.65
223.609	4085.04
215.9	4226.11
208.184	4223.07
200.459	4165.68
192.727	4147.17
184.986	4078.32
177.238	4257.29
169.482	4258.02
161.717	4404.21
153.945	4550.08
146.164	4509.34
138.375	4667.59
130.578	4813.94
122.771	4915.14
114.959	4899.69
107.137	4971.15
99.3066	5246.68
91.4668	5419.58
83.6211	5639.22
75.7637	6011.05
67.9004	6162.15
60.0273	4890.85
52.1465	1112.3
44.2559	143.162
40.3086	70.9083

File: FTO2_532nm_5sec_5per_50x.txt
#Wave		#Intensity
1818.91	1963.83
1812.64	2005.79
1806.37	2109.48
1800.1	2058.47
1793.82	2074.39
1787.53	2126.87
1781.24	2064.81
1774.95	2039.37
1768.65	2001.27
1762.35	2036.16
1756.04	2094.77
1749.72	2069.36
1743.4	2181.61
1737.08	2058.15
1730.75	2037.55
1724.42	1977.52
1718.08	2143.08
1711.73	1990.09
1705.38	2013.66
1699.03	2004.16
1692.67	1996.24
1686.3	1890.95
1679.93	1977.28
1673.56	1972.51
1667.18	1919.19
1660.79	1936.39
1654.4	1916.01
1648	1865.97
1641.6	1883.16
1635.19	1892.51
1628.78	1922.1
1622.36	1912.7
1615.94	1851.95
1609.51	1925.03
1603.07	1926.51
1596.63	1744.81
1590.19	1847.25
1583.74	1848.78
1577.28	1875.08
1570.82	1814.69
1564.35	1743.58
1557.88	1834.76
1551.4	1834.73
1544.92	1785.36
1538.43	1876.24
1531.93	1885.4
1525.43	1825.34
1518.92	1882.15
1512.41	1877.45
1505.89	1845.14
1499.37	1842.01
1492.84	1834.28
1486.31	1802.09
1479.77	1820.39
1473.22	1730.22
1466.67	1772.96
1460.11	1838.48
1453.55	1765.28
1446.98	1737.86
1440.4	1853.41
1433.82	1845.7
1427.24	1742.39
1420.64	1733.27
1414.05	1822.65
1407.44	1745.35
1400.83	1748.34
1394.22	1793.64
1387.6	1776.95
1380.97	1736.16
1374.33	1737.63
1367.7	1724.04
1361.05	1814.28
1354.4	1705.95
1347.74	1651.87
1341.08	1699.91
1334.41	1602.46
1327.74	1690.89
1321.05	1660.95
1314.37	1732.72
1307.68	1719.22
1300.98	1723.65
1294.27	1678.87
1287.56	1772.7
1280.85	1784.51
1274.12	1693.69
1267.39	1659.49
1260.66	1736.67
1253.92	1763.28
1247.17	1647.61
1240.42	1623.92
1233.66	1663.88
1226.89	1739.22
1220.12	1709.6
1213.35	1654.96
1206.56	1656.42
1199.77	1774.19
1192.98	1735.81
1186.18	1682.81
1179.37	1700.38
1172.55	1756.06
1165.73	1742.75
1158.91	1729.46
1152.07	1779.11
1145.24	1831.59
1138.39	1883.97
1131.54	1896.86
1124.68	1803.3
1117.82	1976.45
1110.95	1948.47
1104.07	1977.23
1097.19	2017.57
1090.3	2005.58
1083.41	2019.72
1076.51	2196.07
1069.6	2139.08
1062.69	2056.17
1055.77	2206
1048.84	2182.35
1041.91	2122.69
1034.97	2162.54
1028.03	2141.87
1021.07	2141.37
1014.12	2092.01
1007.15	2035.56
1000.18	1993.56
993.205	1937.3
986.223	1859.66
979.234	1948.08
972.238	1866.29
965.236	1764.66
958.229	1761.63
951.215	1767.15
944.193	1742.76
937.166	1738.33
930.133	1635.85
923.092	1644.3
916.045	1597.41
908.992	1635.64
901.934	1577.51
894.867	1491.18
887.795	1547.78
880.717	1608.51
873.631	1487.11
866.539	1506.9
859.441	1435.11
852.338	1535.11
845.227	1490.13
838.109	1532.31
830.984	1558.98
823.854	1622.04
816.717	1603.76
809.574	1651.27
802.424	1716.87
795.268	1705.52
788.104	1715.12
780.934	1724.71
773.758	1723.13
766.574	1717.38
759.385	1662.96
752.189	1640.6
744.986	1668.24
737.777	1694.44
730.561	1643.01
723.338	1644.27
716.109	1601.28
708.873	1638.49
701.631	1628.7
694.381	1645.12
687.125	1631.21
679.863	1581.53
672.594	1600.69
665.318	1588.22
658.035	1684.21
650.744	1649.74
643.449	1659.17
636.146	1650.79
628.836	1728.58
621.52	1666.86
614.195	1693.97
606.865	1624.21
599.529	1619.97
592.186	1543.6
584.834	1561.2
577.477	1622.24
570.111	1601.71
562.74	1639.54
555.361	1582.46
547.977	1553.9
540.584	1616
533.186	1650.96
525.779	1677.75
518.365	1646.5
510.945	1634.17
503.52	1629.93
496.084	1660.66
488.645	1720.88
481.195	1768.91
473.74	1840.97
466.277	1777.6
458.809	1798.65
451.332	1796.94
443.848	1793.88
436.355	1829.53
428.857	1809.11
421.354	1838
413.84	1826.92
406.32	1786.6
398.793	1826.05
391.258	1830.91
383.717	1880.83
376.168	1973.02
368.611	1832.19
361.047	1844.94
353.477	1831.25
345.896	1875.62
338.311	1917.27
330.717	1932.49
323.117	1964.78
315.508	1849.85
307.891	1951.71
300.268	1772.76
292.637	1823.39
284.998	1859.52
277.352	1860.27
269.697	1783.97
262.035	1834.36
254.365	1844.24
246.688	1822.85
239.002	1750.77
231.311	1720.4
223.609	1748.51
215.9	1824.53
208.184	1747.52
200.459	1726.32
192.727	1698.69
184.986	1668.52
177.238	1742.91
169.482	1738.52
161.717	1762.46
153.945	1776.05
146.164	1802.45
138.375	1735.11
130.578	1747.38
122.771	1987.57
114.959	1799.97
107.137	1874.72
99.3066	1839.53
91.4668	1933.2
83.6211	1992.26
75.7637	2009.2
67.9004	2001.94
60.0273	1529.98
52.1465	375.418
44.2559	84.8834
40.3086	45.5839

File: FTO_532nm_5sec_5per_50x.txt
#Wave		#Intensity
1818.91	1435.35
1812.64	1432.93
1806.37	1455.75
1800.1	1443.48
1793.82	1388.23
1787.53	1407.84
1781.24	1436.94
1774.95	1364.34
1768.65	1437.86
1762.35	1466.86
1756.04	1475.21
1749.72	1386.96
1743.4	1422.24
1737.08	1433.75
1730.75	1421.55
1724.42	1418.83
1718.08	1487.07
1711.73	1440.17
1705.38	1410.67
1699.03	1326.14
1692.67	1343.92
1686.3	1389.94
1679.93	1343.29
1673.56	1343.76
1667.18	1267.45
1660.79	1299.27
1654.4	1306.02
1648	1300.24
1641.6	1267.93
1635.19	1313.68
1628.78	1307.9
1622.36	1232.04
1615.94	1254.35
1609.51	1335.7
1603.07	1263.11
1596.63	1217.02
1590.19	1245.46
1583.74	1264.55
1577.28	1272.76
1570.82	1222.17
1564.35	1287.59
1557.88	1325.1
1551.4	1214.41
1544.92	1210.28
1538.43	1247.75
1531.93	1317.47
1525.43	1236.37
1518.92	1258.35
1512.41	1298.71
1505.89	1191.75
1499.37	1258.14
1492.84	1234.08
1486.31	1210.06
1479.77	1233.46
1473.22	1178.93
1466.67	1240.46
1460.11	1196.69
1453.55	1149.95
1446.98	1164.16
1440.4	1187.46
1433.82	1253.26
1427.24	1236.97
1420.64	1172.19
1414.05	1165.1
1407.44	1201.91
1400.83	1161.53
1394.22	1175.61
1387.6	1201.74
1380.97	1138.84
1374.33	1181.53
1367.7	1249.74
1361.05	1171.91
1354.4	1197.92
1347.74	1106.75
1341.08	1155.28
1334.41	1190.22
1327.74	1151.72
1321.05	1129.74
1314.37	1173.58
1307.68	1166.56
1300.98	1172.98
1294.27	1134.65
1287.56	1173.86
1280.85	1180.25
1274.12	1139.04
1267.39	1123.16
1260.66	1129.57
1253.92	1164.15
1247.17	1130.51
1240.42	1133.93
1233.66	1171.37
1226.89	1128.94
1220.12	1102.83
1213.35	1163.78
1206.56	1128.84
1199.77	1199.97
1192.98	1226.84
1186.18	1158.13
1179.37	1177.64
1172.55	1198.58
1165.73	1215.09
1158.91	1263.78
1152.07	1188.02
1145.24	1205.95
1138.39	1293.95
1131.54	1302.99
1124.68	1252.25
1117.82	1350.16
1110.95	1373.68
1104.07	1426.23
1097.19	1403.15
1090.3	1426.55
1083.41	1445.56
1076.51	1512.33
1069.6	1455.96
1062.69	1456.09
1055.77	1532.78
1048.84	1600.68
1041.91	1542.99
1034.97	1453.7
1028.03	1430.79
1021.07	1478.39
1014.12	1438.26
1007.15	1416.85
1000.18	1339.56
993.205	1293.92
986.223	1268.41
979.234	1314.46
972.238	1241.81
965.236	1214.99
958.229	1239.56
951.215	1195.68
944.193	1235.88
937.166	1163.63
930.133	1082.98
923.092	1121.76
916.045	1089.53
908.992	1105.54
901.934	1066.3
894.867	986.106
887.795	1038.92
880.717	1012.55
873.631	1011.63
866.539	959.964
859.441	959.089
852.338	927.259
845.227	1031.85
838.109	1054.78
830.984	1056.63
823.854	1010.8
816.717	1170.95
809.574	1154.49
802.424	1131.06
795.268	1149.58
788.104	1168.07
780.934	1122.38
773.758	1209.12
766.574	1128.68
759.385	1115.13
752.189	1084.94
744.986	1075.61
737.777	1098.2
730.561	1127.67
723.338	1067.12
716.109	1070.28
708.873	1103.84
701.631	1079.36
694.381	1045.27
687.125	1070.48
679.863	1000.67
672.594	990.12
665.318	1093.62
658.035	1054.18
650.744	1069.66
643.449	1064.56
636.146	1059.46
628.836	1050.27
621.52	1091.65
614.195	1031.94
606.865	1071.9
599.529	1073.62
592.186	1029.06
584.834	1038.98
577.477	1023.07
570.111	1046.54
562.74	1067.26
555.361	1035.1
547.977	1007.06
540.584	1092.66
533.186	1060.56
525.779	1089.25
518.365	1070.7
510.945	1173.42
503.52	1056.56
496.084	1099.94
488.645	1202.33
481.195	1246.82
473.74	1226.87
466.277	1214.98
458.809	1205.79
451.332	1280.85
443.848	1227.53
436.355	1317.1
428.857	1299.84
421.354	1230.66
413.84	1210.85
406.32	1280.13
398.793	1243.04
391.258	1253.78
383.717	1325.46
376.168	1338.74
368.611	1308.33
361.047	1295.16
353.477	1238.44
345.896	1312.41
338.311	1353.29
330.717	1378.28
323.117	1384.82
315.508	1315.13
307.891	1361.08
300.268	1303.34
292.637	1198.56
284.998	1281.12
277.352	1326.9
269.697	1302.06
262.035	1291.62
254.365	1302.05
246.688	1236.93
239.002	1238.28
231.311	1201.94
223.609	1235.77
215.9	1279.89
208.184	1209.92
200.459	1212.56
192.727	1150.56
184.986	1144.2
177.238	1198.49
169.482	1185.65
161.717	1235.91
153.945	1217.9
146.164	1235.89
138.375	1265.4
130.578	1252.52
122.771	1348.53
114.959	1290.81
107.137	1326.49
99.3066	1230.61
91.4668	1352.98
83.6211	1354.08
75.7637	1440.41
67.9004	1368.94
60.0273	1023.37
52.1465	268.881
44.2559	81.0826
40.3086	59.5124

File: FTOback_532nm_5sec_5per_50x.txt
#Wave		#Intensity
1818.91	2038.87
1812.64	2036.1
1806.37	2162.1
1800.1	2050.5
1793.82	2069.61
1787.53	2056.87
1781.24	2136.34
1774.95	2017.13
1768.65	2045.7
1762.35	2082.15
1756.04	2031.38
1749.72	2028.19
1743.4	2055.05
1737.08	2138.77
1730.75	1947.52
1724.42	1990.15
1718.08	2125.74
1711.73	2049.96
1705.38	1971.15
1699.03	1947.53
1692.67	2010.38
1686.3	1908.22
1679.93	1928.63
1673.56	1994.47
1667.18	1919.19
1660.79	1867.51
1654.4	1995.78
1648	1894.1
1641.6	1867.54
1635.19	1945.55
1628.78	1937.69
1622.36	1839.49
1615.94	1822.38
1609.51	1935.92
1603.07	1839.51
1596.63	1822.43
1590.19	1868.97
1583.74	1879.78
1577.28	1783.72
1570.82	1774.47
1564.35	1885.79
1557.88	1828.58
1551.4	1732.88
1544.92	1813.11
1538.43	1825.41
1531.93	1791.52
1525.43	1831.49
1518.92	1832.98
1512.41	1814.51
1505.89	1843.61
1499.37	1742.4
1492.84	1799.06
1486.31	1757.72
1479.77	1714.92
1473.22	1659.98
1466.67	1745.49
1460.11	1795.8
1453.55	1681.51
1446.98	1687.65
1440.4	1721.13
1433.82	1737.85
1427.24	1640.7
1420.64	1699.91
1414.05	1652.96
1407.44	1840.71
1400.83	1653.06
1394.22	1657.64
1387.6	1696.94
1380.97	1663.76
1374.33	1574.87
1367.7	1672.85
1361.05	1636.76
1354.4	1620.27
1347.74	1629.34
1341.08	1638.39
1334.41	1657.92
1327.74	1584.55
1321.05	1550.22
1314.37	1610.13
1307.68	1574.33
1300.98	1555.02
1294.27	1634.14
1287.56	1583.52
1280.85	1576.14
1274.12	1607.44
1267.39	1531.72
1260.66	1543.7
1253.92	1570.49
1247.17	1518.71
1240.42	1515.86
1233.66	1514.5
1226.89	1523.48
1220.12	1595.92
1213.35	1505.99
1206.56	1559.16
1199.77	1597.51
1192.98	1509.28
1186.18	1509.38
1179.37	1493.34
1172.55	1593.22
1165.73	1546.34
1158.91	1512.73
1152.07	1502.59
1145.24	1526.08
1138.39	1631.31
1131.54	1591.9
1124.68	1497.16
1117.82	1734.67
1110.95	1657.43
1104.07	1709.73
1097.19	1703.82
1090.3	1668.9
1083.41	1748.59
1076.51	1796.25
1069.6	1754.1
1062.69	1748.18
1055.77	1768.26
1048.84	1776.76
1041.91	1760.73
1034.97	1717.36
1028.03	1777.69
1021.07	1730.06
1014.12	1765.85
1007.15	1643.67
1000.18	1673.73
993.205	1566.17
986.223	1559.02
979.234	1530.43
972.238	1446.16
965.236	1486.25
958.229	1479.2
951.215	1472.15
944.193	1433.79
937.166	1404.04
930.133	1331.7
923.092	1357.47
916.045	1300.91
908.992	1302.56
901.934	1287.21
894.867	1194.08
887.795	1273.56
880.717	1210.26
873.631	1219.04
866.539	1192.55
859.441	1211.18
852.338	1191.79
845.227	1237.09
838.109	1161.52
830.984	1184.32
823.854	1226.7
816.717	1294.21
809.574	1307.02
802.424	1231.73
795.268	1329.77
788.104	1286.69
780.934	1314.79
773.758	1295.48
766.574	1251.15
759.385	1179.09
752.189	1162.73
744.986	1124.19
737.777	1161.98
730.561	1177.54
723.338	1092.03
716.109	1056.46
708.873	1062.39
701.631	1104.2
694.381	1147.31
687.125	1081.5
679.863	1105.28
672.594	1068.5
665.318	1055.15
658.035	1103.59
650.744	1113.54
643.449	1094.7
636.146	1055.36
628.836	1011.98
621.52	1050.67
614.195	1052.42
606.865	1032.35
599.529	1024.57
592.186	1041.31
584.834	987.306
577.477	1067.9
570.111	1015.32
562.74	1019.8
555.361	1033.75
547.977	1051.73
540.584	1023.69
533.186	1075.42
525.779	1083.86
518.365	1082.83
510.945	1068.34
503.52	1068.68
496.084	1079.77
488.645	1131.13
481.195	1166.3
473.74	1209.44
466.277	1212.3
458.809	1158.95
451.332	1175.23
443.848	1195.48
436.355	1191.66
428.857	1257.18
421.354	1204.02
413.84	1250.77
406.32	1224.3
398.793	1203.2
391.258	1298.89
383.717	1244.61
376.168	1305.63
368.611	1303.04
361.047	1244.94
353.477	1247.68
345.896	1297.9
338.311	1268.95
330.717	1296.67
323.117	1378.24
315.508	1267.83
307.891	1332.2
300.268	1182.71
292.637	1212.97
284.998	1223.54
277.352	1205.32
269.697	1200.2
262.035	1245.96
254.365	1223.85
246.688	1156.21
239.002	1152.44
231.311	1151.27
223.609	1143.6
215.9	1183.93
208.184	1110.18
200.459	1121.98
192.727	1115.65
184.986	1105.46
177.238	1162.37
169.482	1098.01
161.717	1117.47
153.945	1160.03
146.164	1121.55
138.375	1116.53
130.578	1148.68
122.771	1237.11
114.959	1184.63
107.137	1137.36
99.3066	1231.89
91.4668	1193.58
83.6211	1282.74
75.7637	1225.37
67.9004	1244.38
60.0273	997.976
52.1465	237.173
44.2559	88.6841
40.3086	44.3177