Folder: HTCeramics/PeakFitting/xrdData/jacobson_raman (part 2)

File: C3_02126_532nm_5sec_5per_50x.txt
#Wave		#Intensity
1818.91	1925.51
1812.64	1930.79
1806.37	2058.46
1800.1	2020.23
1793.82	1996.38
1787.53	1931.2
1781.24	2020.3
1774.95	1994.9
1768.65	2021.9
1762.35	2074.22
1756.04	2009.2
1749.72	1964.86
1743.4	2093.02
1737.08	1952.24
1730.75	1993.33
1724.42	2054.85
1718.08	2067.39
1711.73	2037.36
1705.38	2092.38
1699.03	2082.82
1692.67	2121.98
1686.3	2126.53
1679.93	2131.06
1673.56	2124.61
1667.18	2108.76
1660.79	2193.11
1654.4	2186.6
1648	2103.52
1641.6	2148.61
1635.19	2257.59
1628.78	2126.31
1622.36	2185.27
1615.94	2290.82
1609.51	2259.35
1603.07	2238.79
1596.63	2153.07
1590.19	2213.29
1583.74	2243.95
1577.28	2138.3
1570.82	2292.73
1564.35	2247.49
1557.88	2268.73
1551.4	2222.04
1544.92	2324.97
1538.43	2272.14
1531.93	2230.16
1525.43	2208.24
1518.92	2341.54
1512.41	2298.07
1505.89	2214.78
1499.37	2278.76
1492.84	2324.24
1486.31	2244.2
1479.77	2268.22
1473.22	2241.81
1466.67	2226.11
1460.11	2240.93
1453.55	2322.74
1446.98	2195.92
1440.4	2390.12
1433.82	2263.46
1427.24	2246.28
1420.64	2288.28
1414.05	2255.96
1407.44	2285.76
1400.83	2297.35
1394.22	2289.27
1387.6	2334.04
1380.97	2160.02
1374.33	2280.17
1367.7	2321.81
1361.05	2295.68
1354.4	2260.57
1347.74	2257.05
1341.08	2391.57
1334.41	2404.43
1327.74	2225.56
1321.05	2353.76
1314.37	2427.9
1307.68	2295.78
1300.98	2357.89
1294.27	2369.2
1287.56	2370.06
1280.85	2428.96
1274.12	2432.73
1267.39	2417.17
1260.66	2450.63
1253.92	2343.14
1247.17	2389.92
1240.42	2451.43
1233.66	2503.95
1226.89	2619.91
1220.12	2511.26
1213.35	2584.22
1206.56	2676.21
1199.77	2716.5
1192.98	2653.74
1186.18	2689.55
1179.37	2748.8
1172.55	2890.09
1165.73	2897.74
1158.91	2864.38
1152.07	2939.33
1145.24	3059.46
1138.39	3109.28
1131.54	3185.26
1124.68	3151.77
1117.82	3230.48
1110.95	3314.87
1104.07	3316.23
1097.19	3372.78
1090.3	3384.24
1083.41	3384.08
1076.51	3389.71
1069.6	3301.25
1062.69	3363.33
1055.77	3393.51
1048.84	3244.65
1041.91	3323.91
1034.97	3207.08
1028.03	3302.05
1021.07	3346.51
1014.12	3316.18
1007.15	3227.04
1000.18	3205.47
993.205	3166.74
986.223	3176.75
979.234	3135.24
972.238	3066.66
965.236	3028.18
958.229	3101.03
951.215	3059.74
944.193	2894.64
937.166	2923.3
930.133	2959.02
923.092	3081.28
916.045	2956.48
908.992	2922.61
901.934	2846.31
894.867	2915.87
887.795	3084.25
880.717	3006.6
873.631	2882.52
866.539	2906.67
859.441	2963.18
852.338	2891.53
845.227	2933.87
838.109	2859.57
830.984	2820.47
823.854	2862.76
816.717	3040.83
809.574	2888.32
802.424	2955.58
795.268	2891.42
788.104	2906.92
780.934	2884.74
773.758	2942
766.574	2826.57
759.385	2853.18
752.189	2946.42
744.986	2904.85
737.777	3002.02
730.561	3058.83
723.338	3061.56
716.109	3123.74
708.873	3221.71
701.631	3242.21
694.381	3257.15
687.125	3320.28
679.863	3328.22
672.594	3311.4
665.318	3453.97
658.035	3656.67
650.744	3675.23
643.449	3867.75
636.146	3924.39
628.836	4318.71
621.52	4695.89
614.195	5072.36
606.865	5285.84
599.529	5750.97
592.186	6147.16
584.834	6893.46
577.477	7619.34
570.111	8100.88
562.74	8573.36
555.361	8904.04
547.977	8913.28
540.584	9030.67
533.186	9014.07
525.779	8897.6
518.365	8165.08
510.945	7804.4
503.52	7222.31
496.084	6937.12
488.645	6640.38
481.195	6450.2
473.74	6131.65
466.277	5765.47
458.809	5256.78
451.332	5257.11
443.848	4980.93
436.355	5004.18
428.857	4780.73
421.354	4776.14
413.84	4586.58
406.32	4487.78
398.793	4448.91
391.258	4493.69
383.717	4506.56
376.168	4392.28
368.611	4237.19
361.047	4017.64
353.477	3921.29
345.896	3926.68
338.311	3936
330.717	3976.88
323.117	3937.45
315.508	3823.2
307.891	3759.04
300.268	3626.81
292.637	3573.42
284.998	3616.97
277.352	3619.89
269.697	3612.34
262.035	3576.09
254.365	3444.76
246.688	3455.6
239.002	3450.8
231.311	3470.69
223.609	3481.44
215.9	3505.11
208.184	3453.59
200.459	3478.52
192.727	3463.3
184.986	3449.4
177.238	3558.06
169.482	3626.54
161.717	3742.49
153.945	3818.31
146.164	3840.01
138.375	3878.32
130.578	3961.41
122.771	4092.96
114.959	4112.93
107.137	4186.5
99.3066	4407.98
91.4668	4510.37
83.6211	4765.38
75.7637	4980.37
67.9004	5169.45
60.0273	3870.01
52.1465	861.179
44.2559	168.5
40.3086	72.1746

File: C3_02135_532nm_5sec_5per_50x.txt
#Wave		#Intensity
1818.91	1676.44
1812.64	1737.71
1806.37	1737.97
1800.1	1656.97
1793.82	1786.23
1787.53	1721.22
1781.24	1753.26
1774.95	1737.59
1768.65	1734.64
1762.35	1796.71
1756.04	1784.2
1749.72	1768.53
1743.4	1786.11
1737.08	1802.07
1730.75	1734.29
1724.42	1865.47
1718.08	1821.38
1711.73	1755.31
1705.38	1708.23
1699.03	1834.26
1692.67	1865.77
1686.3	1803
1679.93	1887.83
1673.56	1889.41
1667.18	1828.32
1660.79	1850.29
1654.4	1962.93
1648	1911.29
1641.6	1858.17
1635.19	1934.63
1628.78	1939.25
1622.36	1864.41
1615.94	1985.79
1609.51	2054.09
1603.07	1970.01
1596.63	1915.57
1590.19	1982.19
1583.74	1946.41
1577.28	2003.59
1570.82	2011.17
1564.35	1993.99
1557.88	2024.72
1551.4	1947.37
1544.92	1928.74
1538.43	2111.93
1531.93	1985.44
1525.43	1917.61
1518.92	1997.38
1512.41	2029.42
1505.89	1973.98
1499.37	1986.06
1492.84	1991.99
1486.31	1976.48
1479.77	1867.77
1473.22	1957.76
1466.67	2056.75
1460.11	1990.93
1453.55	1978.52
1446.98	1929.61
1440.4	2051.07
1433.82	2028
1427.24	1986.75
1420.64	1988.03
1414.05	2037.79
1407.44	1960.3
1400.83	2016.04
1394.22	1994.61
1387.6	2021.53
1380.97	1948.84
1374.33	1944.1
1367.7	2010.13
1361.05	1955.69
1354.4	1984.01
1347.74	1931.18
1341.08	2023.99
1334.41	1993.7
1327.74	2024.87
1321.05	2026.06
1314.37	2069.1
1307.68	2050.81
1300.98	2051.96
1294.27	2015.83
1287.56	2103.41
1280.85	2007.76
1274.12	2062.47
1267.39	2016.05
1260.66	2032.05
1253.92	2089.54
1247.17	2044.7
1240.42	2142.04
1233.66	2143.07
1226.89	2138.19
1220.12	2263.23
1213.35	2159.42
1206.56	2285.68
1199.77	2382.27
1192.98	2353.65
1186.18	2388.27
1179.37	2503.58
1172.55	2587.88
1165.73	2587.01
1158.91	2606.64
1152.07	2656.96
1145.24	2796.35
1138.39	2786.52
1131.54	2767.95
1124.68	2797.52
1117.82	2949.38
1110.95	2974.36
1104.07	3054.54
1097.19	2944.29
1090.3	3092.55
1083.41	3137.59
1076.51	3069.57
1069.6	3050.87
1062.69	3003.28
1055.77	3046.79
1048.84	3000.73
1041.91	2869.66
1034.97	2869.94
1028.03	2947.95
1021.07	2903.57
1014.12	2816.17
1007.15	2717.43
1000.18	2756.56
993.205	2811.37
986.223	2722.92
979.234	2650.37
972.238	2596.52
965.236	2567.03
958.229	2698.78
951.215	2518.19
944.193	2560.04
937.166	2497.97
930.133	2453.06
923.092	2572.94
916.045	2472.72
908.992	2524.33
901.934	2452.64
894.867	2542.37
887.795	2530.16
880.717	2471.37
873.631	2432.43
866.539	2362.55
859.441	2418.14
852.338	2452.52
845.227	2458.72
838.109	2383.44
830.984	2375.65
823.854	2352.46
816.717	2425.94
809.574	2425.12
802.424	2383.76
795.268	2366.22
788.104	2447.78
780.934	2399.53
773.758	2369.48
766.574	2317.2
759.385	2334.55
752.189	2293.51
744.986	2488.49
737.777	2429.35
730.561	2428.5
723.338	2386.13
716.109	2451.7
708.873	2573.78
701.631	2539.66
694.381	2586.97
687.125	2540.49
679.863	2583.57
672.594	2615.57
665.318	2793.13
658.035	2833.1
650.744	2886.7
643.449	3092.28
636.146	3023.71
628.836	3269.8
621.52	3556.42
614.195	3819.29
606.865	4095.3
599.529	4456.63
592.186	4922.08
584.834	5426.1
577.477	6077.27
570.111	6478.8
562.74	6909.41
555.361	7339.19
547.977	7313.35
540.584	7372.75
533.186	7244.22
525.779	7043.04
518.365	6506.44
510.945	6081.31
503.52	5562.76
496.084	5390.76
488.645	4955.76
481.195	4728.27
473.74	4526.67
466.277	4243.73
458.809	3902.44
451.332	3873.31
443.848	3721.34
436.355	3644.38
428.857	3636.88
421.354	3482.88
413.84	3412.99
406.32	3323.3
398.793	3229.78
391.258	3377.9
383.717	3279.19
376.168	3346.18
368.611	3184.18
361.047	3018.51
353.477	3005
345.896	3012.61
338.311	3021.51
330.717	2993.52
323.117	2931.39
315.508	2881.2
307.891	2896.72
300.268	2760.1
292.637	2661.73
284.998	2765.07
277.352	2781.91
269.697	2793.49
262.035	2738.5
254.365	2609.31
246.688	2583.24
239.002	2566.32
231.311	2615.69
223.609	2635.09
215.9	2647.96
208.184	2665.98
200.459	2607.6
192.727	2570.01
184.986	2549.27
177.238	2664.03
169.482	2750.19
161.717	2886.36
153.945	2826.76
146.164	2981.82
138.375	2960.72
130.578	2965.29
122.771	3106.86
114.959	3184.16
107.137	3387.79
99.3066	3468.43
91.4668	3758
83.6211	3812.56
75.7637	3933.14
67.9004	4017.86
60.0273	3052.33
52.1465	684.885
44.2559	110.222
40.3086	44.3177

File: C3_02136_532nm_5sec_5per_50x.txt
#Wave		#Intensity
1818.91	1339.55
1812.64	1345.17
1806.37	1361.68
1800.1	1328.76
1793.82	1335.7
1787.53	1352.16
1781.24	1362.23
1774.95	1373.87
1768.65	1402.95
1762.35	1385.99
1756.04	1346.86
1749.72	1371.13
1743.4	1349.47
1737.08	1346.81
1730.75	1334.68
1724.42	1426.72
1718.08	1441.34
1711.73	1394.48
1705.38	1418.54
1699.03	1351.31
1692.67	1395.79
1686.3	1454.33
1679.93	1434.31
1673.56	1509.96
1667.18	1363.01
1660.79	1424.5
1654.4	1499.96
1648	1417.45
1641.6	1449.06
1635.19	1574.23
1628.78	1510.55
1622.36	1517.08
1615.94	1624.74
1609.51	1649.8
1603.07	1603.36
1596.63	1609.76
1590.19	1599.09
1583.74	1579.14
1577.28	1559.21
1570.82	1550.15
1564.35	1616.83
1557.88	1575.3
1551.4	1546.17
1544.92	1611.14
1538.43	1617.45
1531.93	1496.01
1525.43	1545.46
1518.92	1599.44
1512.41	1564.28
1505.89	1539.92
1499.37	1526.32
1492.84	1572.46
1486.31	1575.68
1479.77	1554.43
1473.22	1575.98
1466.67	1545.62
1460.11	1538.17
1453.55	1527.68
1446.98	1568.95
1440.4	1613.18
1433.82	1558.59
1427.24	1555.7
1420.64	1583.14
1414.05	1619.62
1407.44	1666.63
1400.83	1568.37
1394.22	1536.76
1387.6	1622.96
1380.97	1582.3
1374.33	1633.64
1367.7	1620.15
1361.05	1558.53
1354.4	1576.69
1347.74	1585.79
1341.08	1666.9
1334.41	1648.93
1327.74	1607.02
1321.05	1625.03
1314.37	1714.78
1307.68	1652
1300.98	1704.25
1294.27	1596.86
1287.56	1587.98
1280.85	1711.58
1274.12	1658
1267.39	1588.17
1260.66	1617.92
1253.92	1671.34
1247.17	1619.46
1240.42	1657.97
1233.66	1686.06
1226.89	1683.07
1220.12	1687.46
1213.35	1659.39
1206.56	1750.74
1199.77	1825.72
1192.98	1796.13
1186.18	1760.7
1179.37	1781.14
1172.55	1788.34
1165.73	1843.89
1158.91	1817.33
1152.07	1891.77
1145.24	1909.06
1138.39	1983.28
1131.54	1937.71
1124.68	1940.33
1117.82	2076.94
1110.95	2060.51
1104.07	2048.47
1097.19	2064.05
1090.3	2110.07
1083.41	2128.46
1076.51	2138.12
1069.6	2095.66
1062.69	2129.91
1055.77	2080.31
1048.84	2053.89
1041.91	2103.94
1034.97	2042.96
1028.03	2023.84
1021.07	2065.15
1014.12	2102.07
1007.15	2001.11
1000.18	2076.74
993.205	2092.05
986.223	2068.68
979.234	1972.4
972.238	1944.89
965.236	1943.12
958.229	1991.28
951.215	1953.84
944.193	1880.88
937.166	1923.26
930.133	1976.94
923.092	2014.9
916.045	1932.21
908.992	1865.25
901.934	1910.28
894.867	1908.55
887.795	1954.87
880.717	1885.3
873.631	1883.58
866.539	1850.85
859.441	1915.36
852.338	1922.06
845.227	1911.87
838.109	1842.71
830.984	1821.38
823.854	1884.21
816.717	1883.89
809.574	1905.96
802.424	1939.17
795.268	1916.44
788.104	1858.86
780.934	1942.21
773.758	1881.93
766.574	1935.87
759.385	1892.39
752.189	1862.87
744.986	1890.3
737.777	1938.49
730.561	1954.72
723.338	1975.07
716.109	1987.08
708.873	2110.97
701.631	2172.52
694.381	2100.19
687.125	2078.96
679.863	2134.85
672.594	2197.52
665.318	2326.01
658.035	2307.38
650.744	2424.56
643.449	2426.42
636.146	2535.05
628.836	2762.44
621.52	2888.31
614.195	3065.8
606.865	3217.05
599.529	3512.44
592.186	3789.57
584.834	4128.74
577.477	4673.78
570.111	4921.88
562.74	5195.28
555.361	5472.22
547.977	5400.76
540.584	5570.13
533.186	5556.79
525.779	5471.92
518.365	5108.06
510.945	4785.3
503.52	4538.5
496.084	4372.85
488.645	4286.76
481.195	4090.76
473.74	3970.22
466.277	3741.4
458.809	3495.6
451.332	3465.52
443.848	3317.95
436.355	3300.09
428.857	3239.59
421.354	3140.58
413.84	3003.17
406.32	2971.03
398.793	2923
391.258	3013.04
383.717	2913.36
376.168	2880.07
368.611	2783.34
361.047	2636.57
353.477	2630.03
345.896	2673.62
338.311	2597.21
330.717	2711.81
323.117	2668.37
315.508	2588.22
307.891	2517.4
300.268	2402.14
292.637	2360.45
284.998	2422.22
277.352	2453.78
269.697	2396.47
262.035	2455.38
254.365	2400.78
246.688	2381.42
239.002	2324.38
231.311	2266.15
223.609	2365.09
215.9	2449.56
208.184	2327.87
200.459	2410.89
192.727	2354.12
184.986	2312.94
177.238	2427.95
169.482	2376.45
161.717	2549.06
153.945	2527.11
146.164	2589.98
138.375	2609.08
130.578	2674.27
122.771	2766.21
114.959	2694.19
107.137	2881.73
99.3066	2934.82
91.4668	3055.37
83.6211	3139.98
75.7637	3298.19
67.9004	3430.62
60.0273	2628.26
52.1465	593.567
44.2559	115.289
40.3086	37.9866

File: C3_02137_532nm_5sec_1per_50x.txt
#Wave		#Intensity
1818.91	301.759
1812.64	335.095
1806.37	287.004
1800.1	291.563
1793.82	278.602
1787.53	307.019
1781.24	314.728
1774.95	287.481
1768.65	284.081
1762.35	271.171
1756.04	288.387
1749.72	289.741
1743.4	283.183
1737.08	245.018
1730.75	319.059
1724.42	310.911
1718.08	346.93
1711.73	299.38
1705.38	308.583
1699.03	303.613
1692.67	331.658
1686.3	312.54
1679.93	290.314
1673.56	297.915
1667.18	338.404
1660.79	330.297
1654.4	303.434
1648	323.498
1641.6	309.175
1635.19	337
1628.78	300.864
1622.36	325.533
1615.94	323.703
1609.51	304.771
1603.07	312.281
1596.63	282.523
1590.19	308.651
1583.74	300.64
1577.28	287.997
1570.82	340.351
1564.35	330.786
1557.88	313.515
1551.4	339.478
1544.92	311.435
1538.43	335.814
1531.93	284.734
1525.43	278.337
1518.92	291.925
1512.41	280.926
1505.89	299.088
1499.37	295.763
1492.84	309.286
1486.31	273.832
1479.77	301.105
1473.22	300.842
1466.67	320.414
1460.11	289.645
1453.55	286.344
1446.98	275.441
1440.4	282.801
1433.82	270.399
1427.24	300.516
1420.64	306.317
1414.05	307.562
1407.44	273.988
1400.83	285.845
1394.22	318.835
1387.6	285.339
1380.97	274.527
1374.33	305.932
1367.7	289.097
1361.05	284.327
1354.4	303.613
1347.74	292.831
1341.08	313.575
1334.41	299.805
1327.74	308.523
1321.05	294.781
1314.37	313.952
1307.68	301.722
1300.98	313.391
1294.27	283.29
1287.56	265.161
1280.85	287.248
1274.12	318.217
1267.39	304.561
1260.66	328.037
1253.92	320.327
1247.17	277.071
1240.42	269.421
1233.66	331.296
1226.89	320.655
1220.12	357.275
1213.35	311.228
1206.56	318.316
1199.77	353.365
1192.98	355.989
1186.18	342.441
1179.37	380.31
1172.55	393.17
1165.73	392.815
1158.91	380.745
1152.07	412.589
1145.24	407.831
1138.39	445.434
1131.54	427.522
1124.68	400.895
1117.82	422.38
1110.95	423.453
1104.07	433.247
1097.19	472.073
1090.3	449.878
1083.41	437.871
1076.51	436.026
1069.6	463.13
1062.69	391.858
1055.77	397.281
1048.84	407.025
1041.91	387.909
1034.97	391.88
1028.03	372.812
1021.07	340.835
1014.12	357.768
1007.15	348.83
1000.18	357.119
993.205	336.734
986.223	340.723
979.234	318.959
972.238	310.096
965.236	325.519
958.229	323.797
951.215	316.377
944.193	323.209
937.166	308.69
930.133	329.728
923.092	340.787
916.045	322.035
908.992	296.229
901.934	307.288
894.867	281.542
887.795	306.729
880.717	292.328
873.631	289.239
866.539	300.253
859.441	297.163
852.338	315.183
845.227	290.998
838.109	275.283
830.984	290.467
823.854	264.967
816.717	270.327
809.574	323.257
802.424	275.426
795.268	284.952
788.104	283.295
780.934	270.488
773.758	284.17
766.574	282.518
759.385	264.183
752.189	269.498
744.986	252.596
737.777	266.23
730.561	259.059
723.338	256.053
716.109	277.942
708.873	269.397
701.631	259.487
694.381	318.544
687.125	289.319
679.863	264.276
672.594	309.412
665.318	269.284
658.035	289.624
650.744	259.186
643.449	293.198
636.146	318.934
628.836	374.707
621.52	423.545
614.195	488.672
606.865	550.949
599.529	610.385
592.186	649.291
584.834	724.841
577.477	789.379
570.111	852.438
562.74	888.255
555.361	879.294
547.977	831.094
540.584	791.096
533.186	770.087
525.779	769.362
518.365	625.697
510.945	576.607
503.52	516.84
496.084	494.836
488.645	416.451
481.195	436.187
473.74	417.001
466.277	363.021
458.809	331.895
451.332	355.644
443.848	324.582
436.355	348.291
428.857	323.959
421.354	331.639
413.84	303.377
406.32	297.767
398.793	304.12
391.258	306.479
383.717	316.785
376.168	270.131
368.611	253.993
361.047	274.891
353.477	273.302
345.896	292.819
338.311	268.813
330.717	271.181
323.117	280.119
315.508	246.997
307.891	318.941
300.268	237.329
292.637	252.812
284.998	230.313
277.352	239.234
269.697	211.569
262.035	232.231
254.365	208.536
246.688	209.628
239.002	206.814
231.311	215.7
223.609	210.288
215.9	208.777
208.184	189.132
200.459	222.584
192.727	215.891
184.986	191.131
177.238	199.964
169.482	210.066
161.717	207.272
153.945	244.352
146.164	231.248
138.375	219.455
130.578	225.634
122.771	222.833
114.959	195.732
107.137	226.194
99.3066	238.718
91.4668	251.214
83.6211	250.943
75.7637	246.855
67.9004	283.449
60.0273	226.005
52.1465	97.6595
44.2559	58.2781
40.3086	45.5839

File: C3_02137_532nm_5sec_10per_50x.txt
#Wave		#Intensity
1818.91	2038.87
1812.64	2104.72
1806.37	2109.48
1800.1	2066.43
1793.82	2091.9
1787.53	2107.78
1781.24	2087.06
1774.95	2141.02
1768.65	2201.23
1762.35	2216.94
1756.04	2161.32
1749.72	2099.44
1743.4	2153.14
1737.08	2187.78
1730.75	2118.11
1724.42	2185.85
1718.08	2286.59
1711.73	2094.08
1705.38	2152.21
1699.03	2194.51
1692.67	2145.56
1686.3	2220.76
1679.93	2270.73
1673.56	2254.75
1667.18	2215.29
1660.79	2175.89
1654.4	2305.47
1648	2262.92
1641.6	2267.28
1635.19	2344.96
1628.78	2343
1622.36	2196.18
1615.94	2290.82
1609.51	2349.53
1603.07	2290.06
1596.63	2322.28
1590.19	2399.41
1583.74	2329.19
1577.28	2280.75
1570.82	2323.67
1564.35	2347.96
1557.88	2344.41
1551.4	2223.58
1544.92	2375.85
1538.43	2395.37
1531.93	2385.61
1525.43	2348.18
1518.92	2338.47
1512.41	2305.74
1505.89	2317.55
1499.37	2327.79
1492.84	2351.8
1486.31	2401.76
1479.77	2337
1473.22	2298.31
1466.67	2424.47
1460.11	2323.25
1453.55	2327.31
1446.98	2372.44
1440.4	2367.32
1433.82	2406.25
1427.24	2405.65
1420.64	2342.87
1414.05	2378.68
1407.44	2317.54
1400.83	2410.78
1394.22	2426.78
1387.6	2341.59
1380.97	2322.92
1374.33	2358.54
1367.7	2451.3
1361.05	2346.83
1354.4	2350.75
1347.74	2368.18
1341.08	2423.08
1334.41	2398.44
1327.74	2357.36
1321.05	2403.13
1314.37	2403.98
1307.68	2510.87
1300.98	2490.71
1294.27	2436.3
1287.56	2451.99
1280.85	2420.03
1274.12	2371.76
1267.39	2437.97
1260.66	2495.16
1253.92	2522.58
1247.17	2502.53
1240.42	2452.91
1233.66	2576.42
1226.89	2614
1220.12	2588.03
1213.35	2683.05
1206.56	2673.26
1199.77	2770.97
1192.98	2783.19
1186.18	2804.19
1179.37	2851.59
1172.55	2895.96
1165.73	2874.29
1158.91	2931.74
1152.07	2939.33
1145.24	3005.38
1138.39	3078.61
1131.54	3100.63
1124.68	3186.75
1117.82	3204.26
1110.95	3250.84
1104.07	3308.96
1097.19	3247.86
1090.3	3363.93
1083.41	3429.03
1076.51	3444.75
1069.6	3350.45
1062.69	3276.57
1055.77	3355.94
1048.84	3377.44
1041.91	3158.07
1034.97	3264.71
1028.03	3243.03
1021.07	3291.87
1014.12	3163.88
1007.15	3179.67
1000.18	3214.07
993.205	3099.39
986.223	3178.18
979.234	3176.72
972.238	3029.51
965.236	3038.18
958.229	3043.98
951.215	3015.56
944.193	2992.88
937.166	2907.66
930.133	2988.87
923.092	2993.25
916.045	2983.43
908.992	2901.35
901.934	2946.85
894.867	2975.29
887.795	3009.34
880.717	2972.7
873.631	2886.75
866.539	2846.06
859.441	2871.63
852.338	2860.57
845.227	2841.09
838.109	2834.29
830.984	2861.17
823.854	2857.15
816.717	2997.41
809.574	2879.92
802.424	2902.46
795.268	2818.79
788.104	2869.24
780.934	2895.89
773.758	2987.96
766.574	2887.81
759.385	2805.91
752.189	2899.18
744.986	2953.43
737.777	2967.36
730.561	2992.34
723.338	3031.11
716.109	3004.81
708.873	3115.33
701.631	3253.25
694.381	3188.2
687.125	3124.64
679.863	3182.32
672.594	3237.14
665.318	3250.64
658.035	3450.78
650.744	3587.47
643.449	3523.86
636.146	3678.01
628.836	3952.21
621.52	4243.65
614.195	4439
606.865	4657.16
599.529	5020.69
592.186	5295.05
584.834	5713.05
577.477	6285.14
570.111	6417.72
562.74	6701.92
555.361	7003.19
547.977	7095.43
540.584	7269.97
533.186	7221.25
525.779	7113.22
518.365	6742.43
510.945	6488.17
503.52	5989.43
496.084	5720.2
488.645	5608.65
481.195	5368.46
473.74	5229.27
466.277	5030.05
458.809	4780.35
451.332	4588.6
443.848	4476.02
436.355	4339.62
428.857	4330.12
421.354	4194.1
413.84	4078.29
406.32	4034.48
398.793	3973.48
391.258	4106.28
383.717	4090.37
376.168	4083.75
368.611	3886.63
361.047	3827.33
353.477	3712.68
345.896	3826.43
338.311	3796.32
330.717	3796.54
323.117	3857.23
315.508	3714.15
307.891	3748.54
300.268	3653.03
292.637	3539.36
284.998	3584.25
277.352	3714.01
269.697	3676.33
262.035	3594.36
254.365	3482.56
246.688	3446.49
239.002	3354.55
231.311	3382.33
223.609	3430.81
215.9	3397.48
208.184	3333.12
200.459	3439.7
192.727	3380.57
184.986	3408.07
177.238	3381.32
169.482	3455.13
161.717	3622.76
153.945	3657.56
146.164	3680.7
138.375	3699.93
130.578	3774.23
122.771	3946.97
114.959	3972.2
107.137	4100.88
99.3066	4196.07
91.4668	4367.55
83.6211	4720.79
75.7637	4746.24
67.9004	4924.13
60.0273	3863.67
52.1465	882.74
44.2559	152.03
40.3086	44.3177

File: C3_02155_532nm_5sec_5per_50x.txt
#Wave		#Intensity
1818.91	1511.99
1812.64	1420.17
1806.37	1487.64
1800.1	1489.68
1793.82	1381.86
1787.53	1523.96
1781.24	1519.6
1774.95	1467.58
1768.65	1475.95
1762.35	1541.39
1756.04	1478.38
1749.72	1491.46
1743.4	1551.97
1737.08	1470.11
1730.75	1530.53
1724.42	1541.93
1718.08	1543.84
1711.73	1455.93
1705.38	1541.34
1699.03	1588.85
1692.67	1581.27
1686.3	1536
1679.93	1555.14
1673.56	1625.99
1667.18	1621.52
1660.79	1545.04
1654.4	1673.58
1648	1651.87
1641.6	1583.35
1635.19	1678.76
1628.78	1608.76
1622.36	1546.67
1615.94	1654.31
1609.51	1663.8
1603.07	1594.03
1596.63	1569.4
1590.19	1668.89
1583.74	1620.98
1577.28	1656.76
1570.82	1646.06
1564.35	1711.12
1557.88	1638.62
1551.4	1629.5
1544.92	1660.47
1538.43	1699.1
1531.93	1697.63
1525.43	1688.48
1518.92	1653.22
1512.41	1688.63
1505.89	1653.42
1499.37	1498.74
1492.84	1708.73
1486.31	1727.13
1479.77	1643.08
1473.22	1653.87
1466.67	1689.04
1460.11	1737.87
1453.55	1616.02
1446.98	1645.04
1440.4	1716.57
1433.82	1708.98
1427.24	1657.39
1420.64	1710.52
1414.05	1725.68
1407.44	1696.91
1400.83	1704.48
1394.22	1737.73
1387.6	1773.93
1380.97	1693.92
1374.33	1696.94
1367.7	1734.58
1361.05	1767.64
1354.4	1641.32
1347.74	1767.5
1341.08	1821.44
1334.41	1776.34
1327.74	1746.3
1321.05	1782.15
1314.37	1826.9
1307.68	1801.37
1300.98	1777.37
1294.27	1728.07
1287.56	1865.06
1280.85	1916.97
1274.12	1845.36
1267.39	1809.54
1260.66	1908.85
1253.92	1874.51
1247.17	1877.27
1240.42	1857.82
1233.66	1924.18
1226.89	1971.21
1220.12	2016.68
1213.35	2003.07
1206.56	2032.21
1199.77	2170.25
1192.98	2106.51
1186.18	2038.48
1179.37	2180.54
1172.55	2253.39
1165.73	2252.82
1158.91	2143.89
1152.07	2177.07
1145.24	2299.35
1138.39	2352.77
1131.54	2302.49
1124.68	2428.7
1117.82	2464.37
1110.95	2485.42
1104.07	2500.62
1097.19	2560.82
1090.3	2590.43
1083.41	2566.33
1076.51	2610.36
1069.6	2539.98
1062.69	2478.39
1055.77	2532.49
1048.84	2606.69
1041.91	2513.48
1034.97	2483.83
1028.03	2529.08
1021.07	2490.83
1014.12	2573.34
1007.15	2417.41
1000.18	2482.62
993.205	2473.21
986.223	2435.17
979.234	2405.78
972.238	2427.89
965.236	2325.75
958.229	2404.94
951.215	2405.61
944.193	2293.79
937.166	2258.98
930.133	2285.35
923.092	2300.31
916.045	2322.34
908.992	2344.32
901.934	2315.28
894.867	2320.25
887.795	2391.64
880.717	2341.44
873.631	2273
866.539	2224.41
859.441	2229.42
852.338	2234.43
845.227	2257.69
838.109	2227.54
830.984	2151.14
823.854	2212.26
816.717	2224.25
809.574	2290.78
802.424	2274.71
795.268	2328.5
788.104	2252.41
780.934	2361.89
773.758	2251.07
766.574	2244.83
759.385	2233.04
752.189	2162.93
744.986	2320.55
737.777	2418.26
730.561	2457.6
723.338	2377.83
716.109	2403.3
708.873	2449.44
701.631	2599.01
694.381	2592.48
687.125	2665.87
679.863	2645.51
672.594	2632.07
665.318	2771.15
658.035	2947.03
650.744	2948.41
643.449	3030.63
636.146	3104.47
628.836	3283.48
621.52	3587.84
614.195	3893
606.865	4046.2
599.529	4248.17
592.186	4566.81
584.834	5095.64
577.477	5566.41
570.111	5851.69
562.74	6204.23
555.361	6477.51
547.977	6590.55
540.584	6668.2
533.186	6745.69
525.779	6719.09
518.365	6501.05
510.945	6050.33
503.52	5682.55
496.084	5423.03
488.645	5329.23
481.195	5054.4
473.74	5009.37
466.277	4755.44
458.809	4401.62
451.332	4196.86
443.848	3944.4
436.355	3865.89
428.857	3836.85
421.354	3669.34
413.84	3523.43
406.32	3502.75
398.793	3446.25
391.258	3606.1
383.717	3488.61
376.168	3479.92
368.611	3333.66
361.047	3182.39
353.477	3137.03
345.896	3115.49
338.311	3116.38
330.717	3185.72
323.117	3126.03
315.508	3003.38
307.891	3041.09
300.268	2879.42
292.637	2907.99
284.998	2924.72
277.352	2947.94
269.697	2948.9
262.035	3011.17
254.365	2941.67
246.688	2852.76
239.002	2938.32
231.311	2863.87
223.609	2896
215.9	2845.07
208.184	2860.29
200.459	2880.65
192.727	2809.17
184.986	2816.6
177.238	2938.82
169.482	3006.65
161.717	3105.22
153.945	3116.12
146.164	3152.69
138.375	3171.19
130.578	3266.56
122.771	3393.73
114.959	3450.25
107.137	3518.14
99.3066	3629.27
91.4668	3798.81
83.6211	3975.61
75.7637	4113.83
67.9004	4157.67
60.0273	3325.32
52.1465	747.031
44.2559	96.2856
40.3086	41.7853