Folder: HTCeramics/PeakFitting/xrdData/ware_pzt

Note: README.md
This github repo is for short-term storage of python projects for any undergrads working for Geoff Brennecka.
This repository is open to the current students at CSM plus the executive high school students from JeffCo.
If you have questions about using git or GitHub, I highly recommend at least reading chapter 2 of the Pro Git book by Scott Chacon and Ben Straub (https://git-scm.com/book/en/v2).
If you have questions about anything else, feel free to ask in the group chat or email one of the CSM students directly.
New to Python? Learn it the Hard Way. Poke around on Slack for a current link to Python 3 the Hard Way (by Zed Shaw). Get through at least excercise 20 to develop some familiarity with the basic operations of Python. Or don't, I'm not a README, not a cop.

Most of the code here is python with modules from anaconda [http://anaconda.org/]. If you have base conda installed, most of the modules will exist on your machine,
like numPy, matplotlib, and others. 
A few modules (generally in testing) may need to be installed separately.
I suggest doing any additional installations in a separate *environment*, which can be set up with
  $ conda create --name <Name>
and activated with
  $ conda activate <Name>
It's not necessary, but it's nice to keep a clean workspace, and can help avoid conflicts if you start tinkering with extra modules (totally not speaking from experience). 

If you already have an IDE that you're familiar with, cool. It doesn't matter what you use, though we have seen some 
funky header artifacts from PyCharm. If you're new to all of this, I recommend Atom. It's free, has a ton of available plugins, 
is built with GitHub integration, and looks nice, while being fairly lightweight.

File: PZT for XRD - 59 - Batch 2_15-70 deg_0.004 step_4 sec per step_1.xy
15.0021 9.0
15.1859 8.0
15.3697 11.0
15.5536 7.0
15.7374 5.0
15.9212 9.0
16.105 9.0
16.2889 14.0
16.4727 8.0
16.6565 9.0
16.8403 5.0
17.0242 3.0
17.208 5.0
17.3918 4.0
17.5756 8.0
17.7594 5.0
17.9433 4.0
18.1271 9.0
18.3109 9.0
18.4947 15.0
18.6786 5.0
18.8624 3.0
19.0462 4.0
19.23 7.0
19.4139 4.0
19.5977 10.0
19.7815 7.0
19.9653 7.0
20.1492 7.0
20.333 4.0
20.5168 8.0
20.7006 4.0
20.8845 9.0
21.0683 2.0
21.2521 9.0
21.4359 28.0
21.6198 18.0
21.8036 33.0
21.9874 18.0
22.1712 27.0
22.355 10.0
22.5389 4.0
22.7227 7.0
22.9065 1.0
23.0903 2.0
23.2742 4.0
23.458 3.0
23.6418 1.0
23.8256 2.0
24.0095 4.0
24.1933 5.0
24.3771 4.0
24.5609 2.0
24.7448 4.0
24.9286 3.0
25.1124 5.0
25.2962 1.0
25.4801 4.0
25.6639 5.0
25.8477 4.0
26.0315 4.0
26.2154 3.0
26.3992 3.0
26.583 4.0
26.7668 3.0
26.9506 2.0
27.1345 1.0
27.3183 5.0
27.5021 3.0
27.6859 3.0
27.8698 4.0
28.0536 3.0
28.2374 1.0
28.4212 8.0
28.6051 11.0
28.7889 20.0
28.9727 18.0
29.1565 8.0
29.3404 7.0
29.5242 3.0
29.708 2.0
29.8918 8.0
30.0757 5.0
30.2595 13.0
30.4433 8.0
30.6271 7.0
30.8109 77.0
30.9948 330.0
31.1786 125.0
31.3624 58.0
31.5462 48.0
31.7301 21.0
31.9139 23.0
32.0977 4.0
32.2815 8.0
32.4654 3.0
32.6492 5.0
32.833 2.0
33.0168 4.0
33.2007 2.0
33.3845 1.0
33.5683 1.0
33.7521 3.0
33.936 7.0
34.1198 1.0
34.3036 1.0
34.4874 4.0
34.6713 1.0
34.8551 3.0
35.0389 3.0
35.2227 3.0
35.4065 1.0
35.5904 7.0
35.7742 2.0
35.958 2.0
36.1418 4.0
36.3257 2.0
36.5095 1.0
36.6933 2.0
36.8771 3.0
37.061 3.0
37.2448 1.0
37.4286 3.0
37.6124 2.0
37.7963 5.0
37.9801 11.0
38.1639 37.0
38.3477 47.0
38.5316 27.0
38.7154 10.0
38.8992 3.0
39.083 4.0
39.2669 1.0
39.4507 2.0
39.6345 1.0
39.8183 2.0
40.0021 1.0
40.186 2.0
40.3698 7.0
40.5536 2.0
40.7374 3.0
40.9213 3.0
41.1051 1.0
41.2889 1.0
41.4727 0.0
41.6566 3.0
41.8404 2.0
42.0242 2.0
42.208 3.0
42.3919 1.0
42.5757 4.0
42.7595 1.0
42.9433 0.0
43.1272 2.0
43.311 0.0
43.4948 4.0
43.6786 23.0
43.8625 10.0
44.0463 11.0
44.2301 29.0
44.4139 39.0
44.5977 24.0
44.7816 16.0
44.9654 31.0
45.1492 27.0
45.333 22.0
45.5169 13.0
45.7007 2.0
45.8845 5.0
46.0683 7.0
46.2522 4.0
46.436 4.0
46.6198 3.0
46.8036 1.0
46.9875 2.0
47.1713 3.0
47.3551 3.0
47.5389 7.0
47.7228 5.0
47.9066 2.0
48.0904 3.0
48.2742 2.0
48.458 7.0
48.6419 3.0
48.8257 5.0
49.0095 5.0
49.1933 7.0
49.3772 16.0
49.561 17.0
49.7448 20.0
49.9286 11.0
50.1125 10.0
50.2963 14.0
50.4801 9.0
50.6639 8.0
50.8478 10.0
51.0316 7.0
51.2154 2.0
51.3992 2.0
51.5831 7.0
51.7669 2.0
51.9507 5.0
52.1345 4.0
52.3184 5.0
52.5022 7.0
52.686 4.0
52.8698 3.0
53.0536 3.0
53.2375 4.0
53.4213 4.0
53.6051 3.0
53.7889 4.0
53.9728 3.0
54.1566 2.0
54.3404 1.0
54.5242 10.0
54.7081 40.0
54.8919 62.0
55.0757 58.0
55.2595 42.0
55.4434 28.0
55.6272 40.0
55.811 34.0
55.9948 15.0
56.1787 7.0
56.3625 8.0
56.5463 7.0
56.7301 2.0
56.914 2.0
57.0978 0.0
57.2816 2.0
57.4654 4.0
57.6492 5.0
57.8331 1.0
58.0169 2.0
58.2007 2.0
58.3845 4.0
58.5684 2.0
58.7522 4.0
58.936 1.0
59.1198 3.0
59.3037 4.0
59.4875 0.0
59.6713 1.0
59.8551 5.0
60.039 3.0
60.2228 1.0
60.4066 1.0
60.5904 5.0
60.7743 5.0
60.9581 5.0
61.1419 0.0
61.3257 2.0
61.5096 4.0
61.6934 2.0
61.8772 3.0
62.061 1.0
62.2448 3.0
62.4287 2.0
62.6125 1.0
62.7963 5.0
62.9801 4.0
63.164 3.0
63.3478 1.0
63.5316 1.0
63.7154 3.0
63.8993 4.0
64.0831 2.0
64.2669 17.0
64.4507 21.0
64.6346 27.0
64.8184 27.0
65.0022 15.0
65.186 7.0
65.3699 5.0
65.5537 5.0
65.7375 9.0
65.9213 4.0
66.1051 4.0
66.289 9.0
66.4728 4.0
66.6566 5.0
66.8404 9.0
67.0243 1.0
67.2081 3.0
67.3919 1.0
67.5757 1.0
67.7596 1.0
67.9434 7.0
68.1272 3.0
68.311 7.0
68.4949 3.0
68.6787 11.0
68.8625 16.0
69.0463 15.0
69.2302 7.0
69.414 7.0
69.5978 8.0
69.7816 3.0
69.9655 2.0
69.9947 1.0